time,acc_x,acc_y,acc_z,local_lo,local_la,py_lo,py_la,
1.52629E+12,0.041015625,-0.0390625,1.01550293,17.2833198,62.3954872,-1,,
1.52629E+12,0.060546875,-0.061889648,1.012329102,17.2833198,62.3954873,-1,,
1.52629E+12,0.051635742,-0.064819336,0.983276367,17.2833198,62.3954873,-1,,
1.52629E+12,0.040527344,-0.03894043,1.002685547,17.2833198,62.3954873,-1,,
1.52629E+12,0.038452148,-0.032714844,1.012939453,17.2833198,62.3954873,-1,,
1.52629E+12,0.05456543,-0.062011719,0.982666016,17.2833198,62.3954873,-1,,
1.52629E+12,0.065063477,-0.05090332,0.996704102,17.2833198,62.3954873,-1,,
1.52629E+12,0.042114258,-0.03894043,1.002807617,17.2833198,62.3954873,-1,,
1.52629E+12,0.040893555,-0.036010742,1.013305664,17.2833198,62.3954873,-1,,
1.52629E+12,0.057128906,-0.061889648,0.988037109,17.2833198,62.3954873,-1,,
1.52629E+12,0.056396484,-0.043212891,0.998779297,17.2833198,62.3954873,-1,,
1.52629E+12,0.038452148,-0.036254883,1.0078125,17.2833198,62.3954874,-1,,
1.52629E+12,0.049560547,-0.056762695,1.007446289,17.2833198,62.3954874,-1,,
1.52629E+12,0.059814453,-0.061157227,0.991943359,17.2833198,62.3954874,-1,,
1.52629E+12,0.045166016,-0.034423828,1.012451172,17.2833198,62.3954874,-1,,
1.52629E+12,0.053710938,-0.0703125,0.993164063,17.2833198,62.3954874,-1,,
1.52629E+12,0.059814453,-0.060180664,1.00012207,17.2833198,62.3954874,-1,,
1.52629E+12,0.044189453,-0.030151367,1.008422852,17.2833198,62.3954874,-1,,
1.52629E+12,0.047851563,-0.051635742,1.013549805,17.2833198,62.3954874,-1,,
1.52629E+12,0.058837891,-0.049194336,1.004882813,17.2833198,62.3954874,-1,,
1.52629E+12,0.044799805,-0.028564453,1.01550293,17.2833198,62.3954874,-1,,
1.52629E+12,0.051391602,-0.066650391,0.998413086,17.2833198,62.3954874,-1,,
1.52629E+12,0.063232422,-0.058227539,0.991088867,17.2833198,62.3954874,-1,,
1.52629E+12,0.047363281,-0.030761719,1.009643555,17.2833198,62.3954874,-1,,
1.52629E+12,0.052368164,-0.068237305,0.982666016,17.2833198,62.3954874,-1,,
1.52629E+12,0.055053711,-0.041870117,0.99621582,17.2833198,62.3954874,-1,,
1.52629E+12,0.051269531,-0.06652832,0.986694336,17.2833198,62.3954874,-1,,
1.52629E+12,0.052856445,-0.054321289,1.002685547,17.2833198,62.3954874,-1,,
1.52629E+12,0.051269531,-0.039306641,1.024902344,17.2833198,62.3954874,-1,,
1.52629E+12,0.056152344,-0.065307617,0.997436523,17.2833198,62.3954874,-1,,
1.52629E+12,0.048583984,-0.041748047,1.020141602,17.2833198,62.3954874,-1,,
1.52629E+12,0.059326172,-0.063476563,0.982177734,17.2833198,62.3954874,-1,,
1.52629E+12,0.045776367,-0.036254883,1.006347656,17.2833198,62.3954874,-1,,
1.52629E+12,0.05065918,-0.059936523,1.005126953,17.2833198,62.3954874,-1,,
1.52629E+12,0.042114258,-0.032958984,1.008789063,17.2833198,62.3954874,-1,,
1.52629E+12,0.046020508,-0.060791016,0.998535156,17.2833198,62.3954874,-1,,
1.52629E+12,0.057983398,-0.056152344,0.991577148,17.2833198,62.3954874,-1,,
1.52629E+12,0.049316406,-0.062988281,0.986328125,17.2833199,62.3954874,-1,,
1.52629E+12,0.05480957,-0.049194336,0.994750977,17.2833199,62.3954874,-1,,
1.52629E+12,0.050537109,-0.051147461,1.020507813,17.2833199,62.3954874,-1,,
1.52629E+12,0.062988281,-0.06237793,0.985717773,17.2833199,62.3954874,-1,,
1.52629E+12,0.045166016,-0.030151367,1.013305664,17.2833199,62.3954874,-1,,
1.52629E+12,0.065185547,-0.059204102,0.989868164,17.2833199,62.3954874,-1,,
1.52629E+12,0.041381836,-0.033081055,1.011352539,17.2833199,62.3954874,-1,,
1.52629E+12,0.045532227,-0.059814453,0.996582031,17.2833199,62.3954874,-1,,
1.52629E+12,0.059326172,-0.058959961,0.988769531,17.2833199,62.3954874,-1,,
1.52629E+12,0.041748047,-0.030273438,1.014892578,17.2833199,62.3954874,-1,,
1.52629E+12,0.062255859,-0.059204102,0.988891602,17.2833199,62.3954874,-1,,
1.52629E+12,0.043579102,-0.03125,1.012451172,17.2833199,62.3954874,-1,,
1.52629E+12,0.052124023,-0.057250977,1.004394531,17.2833199,62.3954874,-1,,
1.52629E+12,0.059692383,-0.058959961,0.997558594,17.2833199,62.3954874,-1,,
1.52629E+12,0.042602539,-0.028564453,1.00793457,17.2833199,62.3954874,-1,,
1.52629E+12,0.062866211,-0.062866211,0.993774414,17.2833199,62.3954874,-1,,
1.52629E+12,0.044433594,-0.030395508,1.010986328,17.2833199,62.3954874,-1,,
1.52629E+12,0.049194336,-0.066162109,0.992553711,17.2833199,62.3954874,-1,,
1.52629E+12,0.044677734,-0.036254883,1.019897461,17.2833199,62.3954874,-1,,
1.52629E+12,0.05480957,-0.064697266,0.991333008,17.2833199,62.3954874,-1,,
1.52629E+12,0.043579102,-0.029663086,1.003540039,17.2833199,62.3954874,-1,,
1.52629E+12,0.059448242,-0.062866211,0.991088867,17.2833199,62.3954874,-1,,
1.52629E+12,0.049560547,-0.038574219,1.016479492,17.2833199,62.3954874,-1,,
1.52629E+12,0.059448242,-0.064453125,0.981445313,17.2833199,62.3954874,-1,,
1.52629E+12,0.044799805,-0.032104492,0.999755859,17.2833199,62.3954874,-1,,
1.52629E+12,0.045043945,-0.059570313,0.999511719,17.2833199,62.3954874,-1,,
1.52629E+12,0.045166016,-0.034301758,1.01940918,17.2833199,62.3954874,-1,,
1.52629E+12,0.051147461,-0.071777344,0.982299805,17.28332,62.3954874,-1,,
1.52629E+12,0.051513672,-0.024902344,0.994995117,17.28332,62.3954874,-1,,
1.52629E+12,0.04699707,-0.055908203,1.014038086,17.28332,62.3954874,-1,,
1.52629E+12,0.065673828,-0.057739258,0.98815918,17.28332,62.3954874,-1,,
1.52629E+12,0.05065918,-0.063842773,0.989013672,17.28332,62.3954874,-1,,
1.52629E+12,0.052246094,-0.043579102,0.999023438,17.28332,62.3954874,-1,,
1.52629E+12,0.047607422,-0.056396484,1.011352539,17.28332,62.3954874,-1,,
1.52629E+12,0.052734375,-0.052978516,0.990966797,17.28332,62.3954874,-1,,
1.52629E+12,0.049072266,-0.05065918,1.020751953,17.28332,62.3954874,-1,,
1.52629E+12,0.045654297,-0.033081055,1.010131836,17.28332,62.3954874,-1,,
1.52629E+12,0.054931641,-0.062011719,0.989624023,17.28332,62.3954874,-1,,
1.52629E+12,0.048217773,-0.034301758,1.010009766,17.2833201,62.3954874,-1,,
1.52629E+12,0.048583984,-0.063110352,0.994140625,17.2833201,62.3954874,-1,,
1.52629E+12,0.046020508,-0.057250977,1.007446289,17.2833201,62.3954874,-1,,
1.52629E+12,0.052368164,-0.049072266,0.98840332,17.2833201,62.3954874,-1,,
1.52629E+12,0.046020508,-0.054077148,1.014404297,17.2833201,62.3954874,-1,,
1.52629E+12,0.053100586,-0.044189453,0.98815918,17.2833201,62.3954874,-1,,
1.52629E+12,0.048583984,-0.060424805,1.005004883,17.2833201,62.3954874,-1,,
1.52629E+12,0.051391602,-0.047241211,1.018310547,17.2833201,62.3954874,-1,,
1.52629E+12,0.047851563,-0.041870117,0.985107422,17.2833201,62.3954874,-1,,
1.52629E+12,0.048706055,-0.056518555,1.011108398,17.2833201,62.3954874,-1,,
1.52629E+12,0.052001953,-0.031860352,1.002807617,17.2833202,62.3954874,-1,,
1.52629E+12,0.052734375,-0.033325195,0.998901367,17.2833202,62.3954874,-1,,
1.52629E+12,0.049072266,-0.068481445,0.997924805,17.2833202,62.3954874,-1,,
1.52629E+12,0.049804688,-0.057617188,1.003662109,17.2833202,62.3954874,-1,,
1.52629E+12,0.048706055,-0.029663086,0.999023438,17.2833202,62.3954874,-1,,
1.52629E+12,0.044921875,-0.038330078,0.990844727,17.2833202,62.3954874,-1,,
1.52629E+12,0.056640625,-0.060058594,1.015014648,17.2833202,62.3954874,-1,,
1.52629E+12,0.056396484,-0.033935547,0.99230957,17.2833203,62.3954874,-1,,
1.52629E+12,0.050415039,-0.041381836,0.985595703,17.2833203,62.3954874,-1,,
1.52629E+12,0.047973633,-0.06262207,1.002929688,17.2833203,62.3954874,-1,,
1.52629E+12,0.057861328,-0.046508789,0.990356445,17.2833203,62.3954874,-1,,
1.52629E+12,0.060668945,-0.077514648,0.998657227,17.2833203,62.3954874,-1,,
1.52629E+12,0.054443359,-0.04699707,1.021972656,17.2833203,62.3954874,-1,,
1.52629E+12,0.047973633,-0.045776367,0.993164063,17.2833203,62.3954874,-1,,
1.52629E+12,0.045654297,-0.032958984,0.997924805,17.2833203,62.3954874,-1,,
1.52629E+12,0.05480957,-0.07043457,1.007324219,17.2833203,62.3954874,-1,,
1.52629E+12,0.060058594,-0.041381836,0.994995117,17.2833203,62.3954874,-1,,
1.52629E+12,0.043457031,-0.046630859,0.998291016,17.2833203,62.3954874,-1,,
1.52629E+12,0.042724609,-0.058837891,0.995483398,17.2833204,62.3954874,-1,,
1.52629E+12,0.0546875,-0.050415039,1.004394531,17.2833204,62.3954874,-1,,
1.52629E+12,0.051025391,-0.032470703,0.993774414,17.2833204,62.3954874,-1,,
1.52629E+12,0.049560547,-0.0703125,1.005615234,17.2833204,62.3954874,-1,,
1.52629E+12,0.056152344,-0.044555664,0.991577148,17.2833204,62.3954874,-1,,
1.52629E+12,0.061645508,-0.038818359,0.993286133,17.2833204,62.3954874,-1,,
1.52629E+12,0.044555664,-0.04296875,1.001953125,17.2833204,62.3954874,-1,,
1.52629E+12,0.049682617,-0.065429688,0.997558594,17.2833204,62.3954874,-1,,
1.52629E+12,0.042602539,-0.041503906,1.019287109,17.2833204,62.3954873,-1,,
1.52629E+12,0.05065918,-0.045043945,1.008911133,17.2833204,62.3954873,-1,,
1.52629E+12,0.053222656,-0.061157227,1.001342773,17.2833205,62.3954873,-1,,
1.52629E+12,0.054931641,-0.051025391,0.979003906,17.2833205,62.3954873,-1,,
1.52629E+12,0.044677734,-0.042480469,1.018798828,17.2833205,62.3954873,-1,,
1.52629E+12,0.060058594,-0.051635742,1.00402832,17.2833205,62.3954873,-1,,
1.52629E+12,0.055908203,-0.065917969,0.981811523,17.2833205,62.3954873,-1,,
1.52629E+12,0.04296875,-0.033569336,1.012329102,17.2833205,62.3954873,-1,,
1.52629E+12,0.055419922,-0.047485352,0.994750977,17.2833205,62.3954873,-1,,
1.52629E+12,0.041870117,-0.054199219,0.990600586,17.2833205,62.3954873,-1,,
1.52629E+12,0.048706055,-0.037719727,1.023803711,17.2833205,62.3954873,-1,,
1.52629E+12,0.049316406,-0.055053711,0.995727539,17.2833205,62.3954873,-1,,
1.52629E+12,0.042358398,-0.042358398,1.024291992,17.2833205,62.3954873,-1,,
1.52629E+12,0.040039063,-0.055297852,1.008178711,17.2833205,62.3954873,-1,,
1.52629E+12,0.048339844,-0.047485352,1.02355957,17.2833205,62.3954873,-1,,
1.52629E+12,0.045043945,-0.060791016,0.962280273,17.2833205,62.3954873,-1,,
1.52629E+12,0.039794922,-0.053344727,0.996948242,17.2833205,62.3954873,-1,,
1.52629E+12,0.044067383,-0.040039063,1.005615234,17.2833205,62.3954873,-1,,
1.52629E+12,0.053955078,-0.059692383,0.989990234,17.2833205,62.3954873,-1,,
1.52629E+12,0.052856445,-0.046875,1.010742188,17.2833206,62.3954873,-1,,
1.52629E+12,0.044067383,-0.043212891,0.997924805,17.2833206,62.3954873,-1,,
1.52629E+12,0.051757813,-0.0625,0.999145508,17.2833206,62.3954873,-1,,
1.52629E+12,0.058349609,-0.061767578,1.006835938,17.2833206,62.3954873,-1,,
1.52629E+12,0.043212891,-0.03503418,0.996948242,17.2833206,62.3954873,-1,,
1.52629E+12,0.055541992,-0.070922852,1.00402832,17.2833206,62.3954873,-1,,
1.52629E+12,0.056030273,-0.03515625,1.009277344,17.2833206,62.3954873,-1,,
1.52629E+12,0.048583984,-0.038208008,1.009399414,17.2833206,62.3954873,-1,,
1.52629E+12,0.000366211,0.07043457,1.076660156,17.2833206,62.3954873,-1,,
1.52629E+12,0.051513672,-0.052246094,1.015258789,17.2833206,62.3954873,-1,,
1.52629E+12,0.050415039,-0.060302734,0.982543945,17.2833206,62.3954872,-1,,
1.52629E+12,0.052124023,-0.047363281,1.024414063,17.2833206,62.3954872,-1,,
1.52629E+12,0.053100586,-0.04675293,0.99597168,17.2833206,62.3954872,-1,,
1.52629E+12,0.045410156,-0.053344727,1.013183594,17.2833206,62.3954872,-1,,
1.52629E+12,0.051757813,-0.060913086,0.986450195,17.2833206,62.3954872,-1,,
1.52629E+12,0.055664063,-0.051147461,0.974975586,17.2833206,62.3954872,-1,,
1.52629E+12,0.030395508,-0.034057617,1.028442383,17.2833206,62.3954872,-1,,
1.52629E+12,0.069946289,-0.065673828,0.971679688,17.2833206,62.3954872,-1,,
1.52629E+12,0.044799805,-0.043823242,1.023803711,17.2833206,62.3954872,-1,,
1.52629E+12,0.05871582,-0.044189453,0.998657227,17.2833206,62.3954872,-1,,
1.52629E+12,0.046386719,-0.054199219,1,17.2833206,62.3954872,-1,,
1.52629E+12,0.052734375,-0.049804688,0.996337891,17.2833206,62.3954872,-1,,
1.52629E+12,0.050170898,-0.053222656,0.99987793,17.2833206,62.3954872,-1,,
1.52629E+12,0.056518555,-0.045288086,1.007202148,17.2833206,62.3954872,-1,,
1.52629E+12,0.050170898,-0.037597656,0.991333008,17.2833206,62.3954872,-1,,
1.52629E+12,0.051147461,-0.065185547,0.999389648,17.2833206,62.3954872,-1,,
1.52629E+12,0.055541992,-0.033325195,1.012329102,17.2833206,62.3954872,-1,,
1.52629E+12,0.048950195,-0.057373047,0.99987793,17.2833206,62.3954872,-1,,
1.52629E+12,0.051391602,-0.049926758,1.000244141,17.2833207,62.3954873,-1,,
1.52629E+12,0.053710938,-0.03527832,1.008422852,17.2833207,62.3954873,-1,,
1.52629E+12,0.044677734,-0.041748047,0.998168945,17.2833207,62.3954873,-1,,
1.52629E+12,0.057373047,-0.056030273,1.001586914,17.2833207,62.3954873,-1,,
1.52629E+12,0.056762695,-0.037353516,1.006469727,17.2833207,62.3954873,-1,,
1.52629E+12,0.047729492,-0.061767578,1.008666992,17.2833207,62.3954873,-1,,
1.52629E+12,0.049316406,-0.062255859,0.994506836,17.2833207,62.3954873,-1,,
1.52629E+12,0.053588867,-0.040161133,1.00769043,17.2833207,62.3954873,-1,,
1.52629E+12,0.041748047,-0.036621094,1.009643555,17.2833207,62.3954873,-1,,
1.52629E+12,0.052856445,-0.06237793,0.990722656,17.2833207,62.3954873,-1,,
1.52629E+12,0.049560547,-0.048461914,1.010253906,17.2833208,62.3954873,-1,,
1.52629E+12,0.048461914,-0.043457031,0.994262695,17.2833208,62.3954873,-1,,
1.52629E+12,0.049804688,-0.065429688,1.001342773,17.2833208,62.3954873,-1,,
1.52629E+12,0.050537109,-0.061645508,1.001708984,17.2833208,62.3954873,-1,,
1.52629E+12,0.056030273,-0.037109375,1.005371094,17.2833208,62.3954873,-1,,
1.52629E+12,0.041015625,-0.061767578,1.003295898,17.2833208,62.3954873,-1,,
1.52629E+12,0.059204102,-0.044311523,0.994873047,17.2833208,62.3954873,-1,,
1.52629E+12,0.058959961,-0.040527344,0.994873047,17.2833209,62.3954874,-1,,
1.52629E+12,0.040649414,-0.039550781,1.015258789,17.2833209,62.3954874,-1,,
1.52629E+12,0.060058594,-0.079711914,0.991943359,17.2833209,62.3954874,-1,,
1.52629E+12,0.051879883,-0.069824219,1.002075195,17.2833209,62.3954874,-1,,
1.52629E+12,0.051025391,-0.03527832,1.004638672,17.2833209,62.3954874,-1,,
1.52629E+12,0.055419922,-0.062133789,0.99621582,17.2833209,62.3954874,-1,,
1.52629E+12,0.051635742,-0.05090332,0.995605469,17.2833209,62.3954874,-1,,
1.52629E+12,0.054199219,-0.033691406,1.009521484,17.2833209,62.3954874,-1,,
1.52629E+12,0.042114258,-0.04309082,0.998291016,17.2833209,62.3954874,-1,,
1.52629E+12,0.059326172,-0.062011719,0.996826172,17.2833209,62.3954874,-1,,
1.52629E+12,0.055541992,-0.038452148,1.001098633,17.2833209,62.3954874,-1,,
1.52629E+12,0.061401367,-0.057006836,1.012329102,17.2833209,62.3954874,-1,,
1.52629E+12,0.059936523,-0.08190918,0.994140625,17.2833209,62.3954874,-1,,
1.52629E+12,0.061889648,-0.039916992,0.995239258,17.2833209,62.3954874,-1,,
1.52629E+12,0.045288086,-0.042358398,1.008911133,17.2833209,62.3954874,-1,,
1.52629E+12,0.051269531,-0.067749023,1.005004883,17.2833209,62.3954874,-1,,
1.52629E+12,0.051147461,-0.035766602,0.999023438,17.2833209,62.3954874,-1,,
1.52629E+12,0.048217773,-0.036987305,1.002319336,17.2833209,62.3954874,-1,,
1.52629E+12,0.050415039,-0.059448242,1.002563477,17.2833209,62.3954874,-1,,
1.52629E+12,0.057495117,-0.047119141,0.997802734,17.2833209,62.3954874,-1,,
1.52629E+12,0.043701172,-0.044555664,1.008178711,17.283321,62.3954874,-1,,
1.52629E+12,0.048583984,-0.037597656,1.013793945,17.283321,62.3954874,-1,,
1.52629E+12,0.053222656,-0.068237305,1.000244141,17.283321,62.3954874,-1,,
1.52629E+12,0.056396484,-0.04284668,0.989624023,17.283321,62.3954874,-1,,
1.52629E+12,0.041625977,-0.048583984,1.016113281,17.283321,62.3954874,-1,,
1.52629E+12,0.043457031,-0.052001953,1.008422852,17.283321,62.3954874,-1,,
1.52629E+12,0.052612305,-0.053344727,0.995727539,17.283321,62.3954874,-1,,
1.52629E+12,0.050048828,-0.04309082,0.992553711,17.283321,62.3954874,-1,,
1.52629E+12,0.052856445,-0.043579102,1.014038086,17.283321,62.3954874,-1,,
1.52629E+12,0.042236328,-0.058105469,1.023071289,17.283321,62.3954874,-1,,
1.52629E+12,0.055786133,-0.062133789,0.989501953,17.283321,62.3954874,-1,,
1.52629E+12,0.050048828,-0.038696289,1.008544922,17.283321,62.3954874,-1,,
1.52629E+12,0.042358398,-0.061767578,1.004150391,17.283321,62.3954874,-1,,
1.52629E+12,0.056274414,-0.049194336,0.992675781,17.283321,62.3954874,-1,,
1.52629E+12,0.042724609,-0.033203125,1.008056641,17.283321,62.3954874,-1,,
1.52629E+12,0.047363281,-0.041259766,1.014526367,17.283321,62.3954874,-1,,
1.52629E+12,0.056762695,-0.056884766,1.008789063,17.283321,62.3954874,-1,,
1.52629E+12,0.052490234,-0.050537109,0.99609375,17.283321,62.3954874,-1,,
1.52629E+12,0.041137695,-0.042480469,1.005004883,17.283321,62.3954874,-1,,
1.52629E+12,0.05090332,-0.046264648,1.011108398,17.283321,62.3954874,-1,,
1.52629E+12,0.050537109,-0.059570313,1.01159668,17.283321,62.3954874,-1,,
1.52629E+12,0.052856445,-0.045043945,0.996459961,17.283321,62.3954874,-1,,
1.52629E+12,0.047241211,-0.043457031,1.004516602,17.283321,62.3954874,-1,,
1.52629E+12,0.05065918,-0.063354492,1.007202148,17.283321,62.3954874,-1,,
1.52629E+12,0.052368164,-0.064941406,0.99609375,17.283321,62.3954874,-1,,
1.52629E+12,0.050170898,-0.042602539,1.007324219,17.283321,62.3954874,-1,,
1.52629E+12,0.042480469,-0.045288086,1.001098633,17.2833211,62.3954875,-1,,
1.52629E+12,0.059204102,-0.056640625,1.011230469,17.2833211,62.3954875,-1,,
1.52629E+12,0.067382813,-0.032226563,0.974853516,17.2833211,62.3954875,-1,,
1.52629E+12,0.173461914,-0.07019043,0.942016602,17.2833211,62.3954875,-1,,
1.52629E+12,0.262207031,-0.107910156,0.811157227,17.2833211,62.3954875,-1,,
1.52629E+12,-0.07434082,-0.049316406,1.006713867,17.2833211,62.3954875,-1,,
1.52629E+12,-0.028198242,0.005371094,0.885620117,17.2833211,62.3954875,-1,,
1.52629E+12,-0.018188477,-0.033569336,1.114868164,17.2833211,62.3954875,-1,,
1.52629E+12,0.0234375,-0.045288086,1.053710938,17.2833211,62.3954875,-1,,
1.52629E+12,0.031982422,-0.040771484,1.041503906,17.2833212,62.3954875,-1,,
1.52629E+12,0.051513672,-0.049804688,0.999389648,17.2833212,62.3954875,-1,,
1.52629E+12,0.057128906,-0.060668945,1.021240234,17.2833212,62.3954875,-1,,
1.52629E+12,0.056762695,-0.046264648,0.995605469,17.2833212,62.3954875,-1,,
1.52629E+12,0.047851563,-0.053710938,0.994873047,17.2833212,62.3954875,-1,,
1.52629E+12,0.030639648,-0.045410156,0.985229492,17.2833212,62.3954875,-1,,
1.52629E+12,0.050292969,-0.057861328,1.009277344,17.2833212,62.3954875,-1,,
1.52629E+12,0.054321289,-0.057617188,0.996704102,17.2833212,62.3954875,-1,,
1.52629E+12,0.04309082,-0.038208008,1.006469727,17.2833212,62.3954875,-1,,
1.52629E+12,0.051757813,-0.072509766,1.028076172,17.2833212,62.3954875,-1,,
1.52629E+12,0.016845703,-0.061767578,1.007080078,17.2833212,62.3954875,-1,,
1.52629E+12,0.046508789,-0.037963867,1.010986328,17.2833213,62.3954875,-1,,
1.52629E+12,0.065917969,-0.057373047,0.993896484,17.2833213,62.3954875,-1,,
1.52629E+12,0.046630859,-0.033569336,1.015380859,17.2833213,62.3954875,-1,,
1.52629E+12,0.047973633,-0.068237305,0.987548828,17.2833213,62.3954875,-1,,
1.52629E+12,0.051269531,-0.052978516,1.010742188,17.2833213,62.3954875,-1,,
1.52629E+12,0.044799805,-0.036499023,1.014648438,17.2833213,62.3954875,-1,,
1.52629E+12,0.047119141,-0.061767578,0.990844727,17.2833213,62.3954875,-1,,
1.52629E+12,0.057006836,-0.045288086,1.010009766,17.2833213,62.3954875,-1,,
1.52629E+12,0.05078125,-0.046630859,1.000732422,17.2833213,62.3954875,-1,,
1.52629E+12,0.041259766,-0.05078125,1.015014648,17.2833214,62.3954876,-1,,
1.52629E+12,0.048950195,-0.062744141,0.999633789,17.2833214,62.3954876,-1,,
1.52629E+12,0.049804688,-0.0390625,0.997558594,17.2833214,62.3954876,-1,,
1.52629E+12,0.04675293,-0.043823242,0.994750977,17.2833214,62.3954876,-1,,
1.52629E+12,0.037963867,-0.045776367,1.00769043,17.2833214,62.3954876,-1,,
1.52629E+12,0.057861328,-0.054443359,1.000610352,17.2833214,62.3954876,-1,,
1.52629E+12,0.059692383,-0.044067383,0.986938477,17.2833214,62.3954876,-1,,
1.52629E+12,0.036499023,-0.042480469,0.995361328,17.2833214,62.3954876,-1,,
1.52629E+12,0.048950195,-0.047729492,1.009033203,17.2833214,62.3954876,-1,,
1.52629E+12,0.052490234,-0.052368164,1.002929688,17.2833215,62.3954876,-1,,
1.52629E+12,0.052246094,-0.051391602,0.985839844,17.2833215,62.3954876,-1,,
1.52629E+12,0.060302734,-0.05078125,0.992675781,17.2833215,62.3954876,-1,,
1.52629E+12,0.050537109,-0.038330078,0.995117188,17.2833215,62.3954876,-1,,
1.52629E+12,0.039916992,-0.047729492,1.005249023,17.2833215,62.3954876,-1,,
1.52629E+12,0.055419922,-0.050170898,1.006958008,17.2833215,62.3954876,-1,,
1.52629E+12,0.046020508,-0.049926758,1.008178711,17.2833215,62.3954876,-1,,
1.52629E+12,0.057006836,-0.060791016,0.99597168,17.2833215,62.3954876,-1,,
1.52629E+12,0.060302734,-0.036376953,0.987915039,17.2833215,62.3954876,-1,,
1.52629E+12,0.041748047,-0.051513672,1.014038086,17.2833215,62.3954876,-1,,
1.52629E+12,0.053833008,-0.059204102,0.997924805,17.2833215,62.3954876,-1,,
1.52629E+12,0.059570313,-0.054077148,1.000366211,17.2833215,62.3954876,-1,,
1.52629E+12,0.05065918,-0.050170898,0.989257813,17.2833215,62.3954876,-1,,
1.52629E+12,0.052001953,-0.046264648,1.008178711,17.2833215,62.3954876,-1,,
1.52629E+12,0.049804688,-0.049926758,1.006835938,17.2833215,62.3954876,-1,,
1.52629E+12,0.05078125,-0.057006836,1.000244141,17.2833216,62.3954876,-1,,
1.52629E+12,0.052368164,-0.057739258,1.000244141,17.2833216,62.3954876,-1,,
1.52629E+12,0.057006836,-0.05065918,0.990600586,17.2833216,62.3954876,-1,,
1.52629E+12,0.048828125,-0.047485352,1.005859375,17.2833216,62.3954876,-1,,
1.52629E+12,0.051269531,-0.046142578,1.009033203,17.2833216,62.3954876,-1,,
1.52629E+12,0.049926758,-0.059204102,1.003417969,17.2833216,62.3954876,-1,,
1.52629E+12,0.043457031,-0.052856445,1.003417969,17.2833216,62.3954876,-1,,
1.52629E+12,0.058837891,-0.052246094,0.995361328,17.2833216,62.3954876,-1,,
1.52629E+12,0.094238281,-0.036743164,0.977416992,17.2833216,62.3954876,-1,,
1.52629E+12,0.050415039,-0.04296875,1.005004883,17.2833216,62.3954876,-1,,
1.52629E+12,0.048706055,-0.047729492,1.010498047,17.2833216,62.3954876,-1,,
1.52629E+12,0.057128906,-0.05847168,0.989135742,17.2833216,62.3954876,-1,,
1.52629E+12,0.054443359,-0.068969727,0.990600586,17.2833216,62.3954876,-1,,
1.52629E+12,0.047363281,-0.041137695,1.007324219,17.2833216,62.3954876,-1,,
1.52629E+12,0.051391602,-0.053222656,0.984375,17.2833216,62.3954876,-1,,
1.52629E+12,0.04699707,-0.053466797,0.997314453,17.2833216,62.3954876,-1,,
1.52629E+12,0.059570313,-0.03918457,1.008056641,17.2833216,62.3954876,-1,,
1.52629E+12,0.046386719,-0.041992188,1.002929688,17.2833216,62.3954876,-1,,
1.52629E+12,0.052001953,-0.063110352,0.996704102,17.2833216,62.3954876,-1,,
1.52629E+12,0.045654297,-0.033569336,1.018554688,17.2833216,62.3954876,-1,,
1.52629E+12,0.038330078,-0.056152344,0.990356445,17.2833216,62.3954876,-1,,
1.52629E+12,0.059326172,-0.058349609,0.998046875,17.2833216,62.3954876,-1,,
1.52629E+12,0.05847168,-0.051269531,0.993408203,17.2833216,62.3954876,-1,,
1.52629E+12,0.048339844,-0.037963867,1.00769043,17.2833217,62.3954876,-1,,
1.52629E+12,0.052612305,-0.052368164,0.995727539,17.2833217,62.3954876,-1,,
1.52629E+12,0.069824219,-0.040283203,1.010375977,17.2833217,62.3954876,-1,,
1.52629E+12,0.036254883,-0.046264648,1.008544922,17.2833217,62.3954876,-1,,
1.52629E+12,0.05065918,-0.044067383,1.008178711,17.2833217,62.3954877,-1,,
1.52629E+12,0.134033203,-0.09362793,0.975341797,17.2833217,62.3954877,-1,,
1.52629E+12,0.067382813,-0.057861328,0.998901367,17.2833217,62.3954877,-1,,
1.52629E+12,0.050292969,-0.036987305,1.00012207,17.2833217,62.3954877,-1,,
1.52629E+12,0.049560547,-0.049072266,1.009643555,17.2833217,62.3954877,-1,,
1.52629E+12,0.05480957,-0.052368164,0.995605469,17.2833217,62.3954877,-1,,
1.52629E+12,0.045898438,-0.049438477,0.998168945,17.2833217,62.3954877,-1,,
1.52629E+12,0.056152344,-0.050048828,0.988891602,17.2833217,62.3954877,-1,,
1.52629E+12,0.052246094,-0.036621094,1.005493164,17.2833217,62.3954877,-1,,
1.52629E+12,0.034667969,-0.051147461,1.005615234,17.2833217,62.3954877,-1,,
1.52629E+12,0.057373047,-0.051879883,0.997436523,17.2833217,62.3954877,-1,,
1.52629E+12,0.047119141,-0.040527344,1.009643555,17.2833218,62.3954877,-1,,
1.52629E+12,0.043823242,-0.044799805,0.999145508,17.2833218,62.3954877,-1,,
1.52629E+12,0.054443359,-0.053710938,1.005126953,17.2833218,62.3954877,-1,,
1.52629E+12,0.055541992,-0.054199219,0.995483398,17.2833218,62.3954877,-1,,
1.52629E+12,0.047729492,-0.055175781,1.001953125,17.2833218,62.3954877,-1,,
1.52629E+12,0.056518555,-0.055664063,0.995849609,17.2833218,62.3954877,-1,,
1.52629E+12,0.048706055,-0.048583984,1.000244141,17.2833218,62.3954877,-1,,
1.52629E+12,0.046630859,-0.049194336,1.007202148,17.2833218,62.3954877,-1,,
1.52629E+12,0.044067383,-0.046020508,1.005981445,17.2833218,62.3954877,-1,,
1.52629E+12,0.052368164,-0.051513672,0.995117188,17.2833218,62.3954877,-1,,
1.52629E+12,0.0546875,-0.050537109,0.991821289,17.2833218,62.3954877,-1,,
1.52629E+12,0.047851563,-0.040893555,1.005126953,17.2833218,62.3954877,-1,,
1.52629E+12,0.051635742,-0.05480957,0.999755859,17.2833218,62.3954877,-1,,
1.52629E+12,0.054931641,-0.052978516,1.005249023,17.2833218,62.3954877,-1,,
1.52629E+12,0.060180664,-0.058349609,0.996704102,17.2833218,62.3954877,-1,,
1.52629E+12,0.046630859,-0.039550781,1.001220703,17.2833218,62.3954877,-1,,
1.52629E+12,0.048461914,-0.075561523,1.049682617,17.2833218,62.3954877,-1,,
1.52629E+12,0.040649414,-0.071411133,0.990478516,17.2833218,62.3954877,-1,,
1.52629E+12,0.040161133,-0.053344727,1.002319336,17.2833218,62.3954877,-1,,
1.52629E+12,0.052612305,-0.048339844,0.997680664,17.2833218,62.3954877,-1,,
1.52629E+12,0.050048828,-0.044799805,1.005615234,17.2833218,62.3954877,-1,,
1.52629E+12,0.087280273,-0.055664063,1.024536133,17.2833218,62.3954877,-1,,
1.52629E+12,0.062133789,-0.052612305,1.012329102,17.2833219,62.3954877,-1,,
1.52629E+12,0.0625,-0.081298828,0.975341797,17.2833219,62.3954877,-1,,
1.52629E+12,0.083618164,-0.034057617,0.996337891,17.2833219,62.3954877,-1,,
1.52629E+12,0.055297852,-0.045654297,1.002197266,17.2833219,62.3954877,-1,,
1.52629E+12,-0.245605469,-0.074707031,0.851806641,17.2833219,62.3954877,-1,,
1.52629E+12,0.005859375,-0.025878906,1.044921875,17.2833219,62.3954877,-1,,
1.52629E+12,-0.022583008,-0.03503418,1.024780273,17.2833219,62.3954877,-1,,
1.52629E+12,0.030029297,-0.059692383,1.024536133,17.2833219,62.3954877,-1,,
1.52629E+12,0.028320313,-0.047729492,1.026367188,17.2833219,62.3954877,-1,,
1.52629E+12,0.048461914,-0.057128906,0.982666016,17.2833219,62.3954877,-1,,
1.52629E+12,0.048461914,-0.04675293,1.000854492,17.2833219,62.3954877,-1,,
1.52629E+12,0.060180664,-0.040893555,1.014038086,17.2833219,62.3954877,-1,,
1.52629E+12,0.05090332,-0.052612305,1.005737305,17.2833219,62.3954877,-1,,
1.52629E+12,0.045898438,-0.055786133,0.996826172,17.2833219,62.3954877,-1,,
1.52629E+12,0.060058594,-0.053710938,0.997558594,17.2833219,62.3954877,-1,,
1.52629E+12,0.053344727,-0.047607422,1.002807617,17.2833219,62.3954877,-1,,
1.52629E+12,0.051635742,-0.04675293,1.006958008,17.2833219,62.3954877,-1,,
1.52629E+12,0.055664063,-0.047729492,1.004760742,17.283322,62.3954877,-1,,
1.52629E+12,0.046020508,-0.05859375,1.000976563,17.283322,62.3954877,-1,,
1.52629E+12,0.055297852,-0.052246094,0.995605469,17.283322,62.3954877,-1,,
1.52629E+12,0.056274414,-0.046386719,1.01159668,17.283322,62.3954877,-1,,
1.52629E+12,0.047607422,-0.054931641,1.00402832,17.283322,62.3954877,-1,,
1.52629E+12,0.041870117,-0.058837891,1.005737305,17.283322,62.3954877,-1,,
1.52629E+12,0.060424805,-0.049804688,0.993408203,17.283322,62.3954877,-1,,
1.52629E+12,0.045898438,-0.043579102,1.006591797,17.2833217,62.3954877,-1,,
1.52629E+12,0.052246094,-0.063110352,0.994384766,17.2833217,62.3954877,-1,,
1.52629E+12,0.055297852,-0.043212891,1.000488281,17.2833217,62.3954877,-1,,
1.52629E+12,0.05065918,-0.041870117,1.008666992,17.2833217,62.3954877,-1,,
1.52629E+12,0.046630859,-0.057739258,0.994995117,17.2833217,62.3954877,-1,,
1.52629E+12,0.056884766,-0.053588867,1.001098633,17.2833217,62.3954877,-1,,
1.52629E+12,0.049560547,-0.041259766,1.000610352,17.2833217,62.3954877,-1,,
1.52629E+12,0.047485352,-0.041137695,1.001464844,17.2833217,62.3954877,-1,,
1.52629E+12,0.049194336,-0.05456543,1.005371094,17.2833217,62.3954877,-1,,
1.52629E+12,0.056152344,-0.055419922,0.989013672,17.2833218,62.3954877,-1,,
1.52629E+12,0.05078125,-0.043945313,1.007446289,17.2833218,62.3954877,-1,,
1.52629E+12,0.053588867,-0.049194336,1.002319336,17.2833218,62.3954877,-1,,
1.52629E+12,0.052001953,-0.042724609,1.009277344,17.2833218,62.3954877,-1,,
1.52629E+12,0.04699707,-0.060424805,0.997558594,17.2833218,62.3954877,-1,,
1.52629E+12,0.0546875,-0.049804688,0.995727539,17.2833218,62.3954877,-1,,
1.52629E+12,0.048339844,-0.048706055,1.009033203,17.2833218,62.3954877,-1,,
1.52629E+12,0.047241211,-0.048706055,1.005371094,17.2833218,62.3954877,-1,,
1.52629E+12,0.052124023,-0.056396484,1.002929688,17.2833218,62.3954877,-1,,
1.52629E+12,0.055175781,-0.052246094,0.994384766,17.2833218,62.3954877,-1,,
1.52629E+12,0.050292969,-0.048217773,1.002197266,17.283322,62.3954878,-1,,
1.52629E+12,0.051269531,-0.048583984,1.009277344,17.283322,62.3954878,-1,,
1.52629E+12,0.049682617,-0.046875,1.01184082,17.2833221,62.3954878,-1,,
1.52629E+12,0.048461914,-0.052368164,1.000488281,17.2833221,62.3954878,-1,,
1.52629E+12,0.056274414,-0.051025391,0.996459961,17.2833221,62.3954878,-1,,
1.52629E+12,0.05090332,-0.04675293,1.005249023,17.2833221,62.3954878,-1,,
1.52629E+12,0.050537109,-0.046630859,1.002075195,17.2833221,62.3954878,-1,,
1.52629E+12,0.053344727,-0.047607422,1.010620117,17.2833221,62.3954878,-1,,
1.52629E+12,0.046386719,-0.054931641,0.987426758,17.2833221,62.3954878,-1,,
1.52629E+12,0.052246094,-0.052001953,0.992431641,17.2833221,62.3954878,-1,,
1.52629E+12,0.056396484,-0.053588867,0.996337891,17.2833221,62.3954878,-1,,
1.52629E+12,0.059692383,-0.061279297,1.008666992,17.2833222,62.3954879,-1,,
1.52629E+12,0.054321289,-0.043701172,0.990722656,17.2833222,62.3954879,-1,,
1.52629E+12,0.048217773,-0.061279297,0.998168945,17.2833222,62.3954879,-1,,
1.52629E+12,0.052490234,-0.057373047,0.990234375,17.2833222,62.3954879,-1,,
1.52629E+12,0.059570313,-0.037841797,0.993896484,17.2833222,62.3954879,-1,,
1.52629E+12,0.036376953,-0.056030273,0.99621582,17.2833222,62.3954879,-1,,
1.52629E+12,0.051269531,-0.042358398,1.001342773,17.2833222,62.3954879,-1,,
1.52629E+12,0.047363281,-0.055541992,1.011474609,17.2833222,62.3954879,-1,,
1.52629E+12,0.02734375,-0.061767578,1.012329102,17.2833222,62.3954879,-1,,
1.52629E+12,-0.005126953,-0.022094727,1.110595703,17.2833222,62.3954879,-1,,
1.52629E+12,0.068359375,-0.0625,1.036499023,17.2833222,62.3954879,-1,,
1.52629E+12,0.19128418,-0.010864258,1.227050781,17.2833222,62.3954879,-1,,
1.52629E+12,0.075927734,-0.040893555,0.981445313,17.2833222,62.3954879,-1,,
1.52629E+12,0.04296875,-0.043945313,0.974243164,17.2833222,62.3954879,-1,,
1.52629E+12,0.035400391,-0.017211914,0.999633789,17.2833222,62.3954879,-1,,
1.52629E+12,0.059692383,-0.0546875,0.988769531,17.2833222,62.3954879,-1,,
1.52629E+12,0.046386719,-0.047241211,1.013793945,17.2833222,62.3954879,-1,,
1.52629E+12,0.03918457,-0.046386719,1.023193359,17.2833222,62.3954879,-1,,
1.52629E+12,0.045654297,-0.044921875,0.997070313,17.2833223,62.395488,-1,,
1.52629E+12,0.056030273,-0.059692383,1.01171875,17.2833223,62.395488,-1,,
1.52629E+12,0.060668945,-0.054199219,1.010986328,17.2833223,62.395488,-1,,
1.52629E+12,0.056152344,-0.050537109,0.991699219,17.2833223,62.395488,-1,,
1.52629E+12,0.051513672,-0.026245117,0.998046875,17.2833223,62.395488,-1,,
1.52629E+12,0.03918457,0.00402832,1.000732422,17.2833223,62.395488,-1,,
1.52629E+12,0.048095703,-0.01171875,1.014160156,17.2833223,62.395488,-1,,
1.52629E+12,0.030273438,-0.016967773,1.006835938,17.2833223,62.395488,-1,,
1.52629E+12,0.047973633,-0.007202148,0.997802734,17.2833223,62.395488,-1,,
1.52629E+12,0.065307617,-0.019165039,1.006713867,17.2833223,62.395488,-1,,
1.52629E+12,0.046508789,-0.034423828,1.001098633,17.2833223,62.395488,-1,,
1.52629E+12,0.045654297,-0.034912109,1.009765625,17.2833223,62.395488,-1,,
1.52629E+12,0.05090332,-0.030517578,1.002685547,17.2833223,62.395488,-1,,
1.52629E+12,0.05090332,-0.008422852,0.997924805,17.2833223,62.395488,-1,,
1.52629E+12,0.035644531,-0.036376953,1.015380859,17.2833223,62.395488,-1,,
1.52629E+12,0.069335938,-0.018676758,0.971679688,17.2833223,62.395488,-1,,
1.52629E+12,0.052490234,-0.036621094,0.973266602,17.2833223,62.395488,-1,,
1.52629E+12,0.037719727,-0.018310547,1.046386719,17.2833223,62.3954881,-1,,
1.52629E+12,0.046386719,-0.026611328,1.022827148,17.2833223,62.3954881,-1,,
1.52629E+12,0.030029297,-0.032714844,1.038818359,17.2833223,62.3954881,-1,,
1.52629E+12,0.053588867,-0.04296875,1.002807617,17.2833223,62.3954881,-1,,
1.52629E+12,0.048217773,-0.04699707,1.032348633,17.2833223,62.3954881,-1,,
1.52629E+12,0.045288086,-0.041015625,0.991943359,17.2833223,62.3954881,-1,,
1.52629E+12,0.051879883,-0.049438477,1.001098633,17.2833223,62.3954881,-1,,
1.52629E+12,0.053344727,-0.041015625,0.995849609,17.2833223,62.3954881,-1,,
1.52629E+12,0.047119141,-0.052368164,1.002441406,17.2833223,62.3954881,-1,,
1.52629E+12,0.05480957,-0.057617188,1.009887695,17.2833224,62.3954881,-1,,
1.52629E+12,0.049072266,-0.039916992,0.989990234,17.2833224,62.3954881,-1,,
1.52629E+12,0.052978516,-0.04284668,0.998046875,17.2833224,62.3954881,-1,,
1.52629E+12,0.061035156,-0.059692383,1.001464844,17.2833224,62.3954881,-1,,
1.52629E+12,0.049316406,-0.019042969,0.971801758,17.2833224,62.3954881,-1,,
1.52629E+12,0.057861328,-0.036010742,0.986328125,17.2833224,62.3954881,-1,,
1.52629E+12,0.056518555,-0.037231445,1.019287109,17.2833224,62.3954881,-1,,
1.52629E+12,0.066162109,-0.05859375,1.007202148,17.2833224,62.3954881,-1,,
1.52629E+12,0.078491211,-0.036254883,0.981933594,17.2833224,62.3954881,-1,,
1.52629E+12,0.070800781,-0.042358398,0.996582031,17.2833224,62.3954881,-1,,
1.52629E+12,0.063964844,-0.042602539,0.986694336,17.2833224,62.3954881,-1,,
1.52629E+12,0.056640625,-0.026855469,0.993530273,17.2833248,62.3954864,-1,,
1.52629E+12,0.076660156,-0.046264648,1.000488281,17.2833248,62.3954864,-1,,
1.52629E+12,0.085083008,-0.026977539,1.018310547,17.2833248,62.3954864,-1,,
1.52629E+12,0.054443359,-0.021972656,1.015991211,17.2833248,62.3954864,-1,,
1.52629E+12,0.050170898,-0.02722168,1.017333984,17.2833248,62.3954864,-1,,
1.52629E+12,0.057373047,-0.023193359,1.013183594,17.2833248,62.3954864,-1,,
1.52629E+12,0.087402344,-0.025634766,0.999511719,17.2833248,62.3954864,-1,,
1.52629E+12,0.067993164,-0.017822266,0.993530273,17.2833229,62.3954875,-1,,
1.52629E+12,0.062866211,-0.014282227,1.031982422,17.2833229,62.3954875,-1,,
1.52629E+12,0.064086914,-0.009155273,0.983398438,17.2833229,62.3954875,-1,,
1.52629E+12,0.094970703,-0.014526367,0.969360352,17.2833229,62.3954875,-1,,
1.52629E+12,0.075561523,-0.027099609,1.032348633,17.2833229,62.3954875,-1,,
1.52629E+12,0.078369141,-0.01171875,1.044555664,17.2833229,62.3954875,-1,,
1.52629E+12,0.056396484,-0.006958008,1.020263672,17.2833229,62.3954875,-1,,
1.52629E+12,0.073242188,0.003417969,1.008178711,17.2833229,62.3954875,-1,,
1.52629E+12,0.077392578,-0.005249023,1.043457031,17.2833229,62.3954875,-1,,
1.52629E+12,0.112548828,-0.016967773,0.998168945,17.2833209,62.3954893,-1,,
1.52629E+12,0.08581543,-0.017578125,1.007446289,17.2833209,62.3954893,-1,,
1.52629E+12,0.089477539,-0.01184082,0.98828125,17.2833209,62.3954893,-1,,
1.52629E+12,0.085571289,-0.004882813,0.997802734,17.2833209,62.3954893,-1,,
1.52629E+12,0.102172852,-0.028686523,1.000366211,17.2833209,62.3954893,-1,,
1.52629E+12,0.101196289,-0.012329102,0.992553711,17.2833209,62.3954893,-1,,
1.52629E+12,0.098022461,-0.014282227,1.000976563,17.2833209,62.3954893,-1,,
1.52629E+12,0.092041016,-0.017211914,1.001342773,17.2833209,62.3954893,-1,,
1.52629E+12,0.106079102,-0.028442383,1.000610352,17.2833248,62.39549,-1,,
1.52629E+12,0.117675781,0.0078125,0.981079102,17.2833248,62.39549,-1,,
1.52629E+12,0.096313477,0.000854492,1.002319336,17.2833248,62.39549,-1,,
1.52629E+12,0.097167969,-0.01184082,1.001464844,17.2833248,62.39549,-1,,
1.52629E+12,0.102905273,-0.023071289,1.025634766,17.2833248,62.39549,-1,,
1.52629E+12,0.096923828,-0.015625,1.004516602,17.2833276,62.3954906,-1,,
1.52629E+12,0.108642578,-0.01940918,0.997802734,17.2833276,62.3954906,-1,,
1.52629E+12,0.099853516,-0.007568359,0.953613281,17.2833276,62.3954906,-1,,
1.52629E+12,0.108154297,-0.027709961,0.987426758,17.2833276,62.3954906,-1,,
1.52629E+12,0.127319336,-0.031738281,0.998168945,17.2833276,62.3954906,-1,,
1.52629E+12,0.119628906,-0.044677734,0.986694336,17.2833276,62.3954906,-1,,
1.52629E+12,0.107543945,-0.030395508,0.98034668,17.2833335,62.395492,-1,,
1.52629E+12,0.108886719,-0.005493164,0.992431641,17.2833335,62.395492,-1,,
1.52629E+12,0.08190918,-0.041992188,1.024169922,17.2833335,62.395492,-1,,
1.52629E+12,0.108642578,-0.055664063,1.024780273,17.2833335,62.395492,-1,,
1.52629E+12,0.095458984,-0.069335938,0.977050781,17.2833335,62.395492,-1,,
1.52629E+12,0.198120117,-0.139404297,1.082519531,17.2833335,62.395492,-1,,
1.52629E+12,0.097045898,-0.032958984,0.934570313,17.2833335,62.395492,-1,,
1.52629E+12,0.102294922,-0.108764648,0.938842773,17.2833335,62.395492,-1,,
1.52629E+12,0.198120117,-0.09777832,0.940551758,17.2833335,62.395492,-1,,
1.52629E+12,0.119750977,-0.08581543,0.98034668,17.2833335,62.395492,-1,,
1.52629E+12,0.109375,-0.076049805,1.014038086,17.2833335,62.395492,-1,,
1.52629E+12,0.116088867,-0.067138672,1.004760742,17.2833386,62.3954941,-1,,
1.52629E+12,0.101196289,-0.085327148,1.006591797,17.2833386,62.3954941,-1,,
1.52629E+12,0.096923828,-0.099487305,0.995727539,17.2833386,62.3954941,-1,,
1.52629E+12,0.104492188,-0.107666016,1.023193359,17.2833386,62.3954941,-1,,
1.52629E+12,0.09362793,-0.11730957,1.020019531,17.2833386,62.3954941,-1,,
1.52629E+12,0.087524414,-0.102416992,0.996704102,17.2833386,62.3954941,-1,,
1.52629E+12,0.06640625,0.00793457,0.976074219,17.2833386,62.3954941,-1,,
1.52629E+12,0.067016602,0.016113281,1.007446289,17.2833386,62.3954941,-1,,
1.52629E+12,0.070678711,-0.00378418,0.974365234,17.2833386,62.3954941,-1,,
1.52629E+12,0.076171875,-0.005615234,1.000610352,17.2833446,62.3954966,-1,,
1.52629E+12,0.063964844,-0.019897461,1.013183594,17.2833446,62.3954966,-1,,
1.52629E+12,0.083374023,-0.021484375,0.997192383,17.2833446,62.3954966,-1,,
1.52629E+12,0.089477539,-0.056152344,0.978881836,17.2833446,62.3954966,-1,,
1.52629E+12,0.094360352,-0.0390625,1.03894043,17.2833446,62.3954966,-1,,
1.52629E+12,0.033203125,-0.084594727,0.990234375,17.2833446,62.3954966,-1,,
1.52629E+12,0.031005859,-0.111938477,1.012695313,17.2833446,62.3954966,-1,,
1.52629E+12,0.042724609,-0.110351563,1.010131836,17.2833446,62.3954966,-1,,
1.52629E+12,0.062255859,-0.116943359,1.020629883,17.283352,62.395496,-1,,
1.52629E+12,0.024902344,-0.147949219,1.00012207,17.283352,62.395496,-1,,
1.52629E+12,0.024414063,-0.161499023,1.018554688,17.283352,62.395496,-1,,
1.52629E+12,0.044555664,-0.153686523,0.99987793,17.283352,62.395496,-1,,
1.52629E+12,0.051513672,-0.176879883,0.989624023,17.283352,62.395496,-1,,
1.52629E+12,0.011962891,-0.19543457,1.000366211,17.283352,62.395496,-1,,
1.52629E+12,0.04699707,-0.188598633,0.989990234,17.283352,62.395496,-1,,
1.52629E+12,-0.000610352,-0.158691406,1.018798828,17.283352,62.395496,-1,,
1.52629E+12,-0.001831055,-0.165893555,0.991821289,17.283352,62.395496,-1,,
1.52629E+12,0.022949219,-0.169433594,0.98059082,17.283352,62.395496,-1,,
1.52629E+12,-0.014038086,-0.141113281,0.945922852,17.283352,62.395496,-1,,
1.52629E+12,0.008911133,-0.190307617,1.067993164,17.283352,62.395496,-1,,
1.52629E+12,0.029785156,-0.162597656,0.931152344,17.2833597,62.3954913,-1,,
1.52629E+12,0.043212891,-0.109375,1.026733398,17.2833597,62.3954913,-1,,
1.52629E+12,0.086425781,-0.083984375,0.995239258,17.2833597,62.3954913,-1,,
1.52629E+12,0.022827148,-0.159545898,1.070922852,17.2833597,62.3954913,-1,,
1.52629E+12,0.042724609,-0.146972656,0.957641602,17.2833597,62.3954913,-1,,
1.52629E+12,0.021484375,-0.07019043,0.995605469,17.2833597,62.3954913,-1,,
1.52629E+12,0.015380859,0.00012207,1.012695313,17.2833597,62.3954913,-1,,
1.52629E+12,0.011352539,-0.061035156,1.00402832,17.2833581,62.3954853,-1,,
1.52629E+12,0.021362305,-0.073974609,1.016113281,17.2833581,62.3954853,-1,,
1.52629E+12,0.039672852,-0.075317383,1.021118164,17.2833581,62.3954853,-1,,
1.52629E+12,0.026123047,-0.014770508,1.01953125,17.2833581,62.3954853,-1,,
1.52629E+12,0.037475586,-0.049194336,1.017822266,17.2833581,62.3954853,-1,,
1.52629E+12,0.061035156,-0.054443359,1.014160156,17.2833581,62.3954853,-1,,
1.52629E+12,0.086181641,-0.065185547,1.002075195,17.2833581,62.3954853,-1,,
1.52629E+12,0.070068359,-0.052001953,0.997558594,17.2833581,62.3954853,-1,,
1.52629E+12,0.140869141,-0.025512695,0.976196289,17.2833473,62.3954711,-1,,
1.52629E+12,0.119140625,-0.024291992,0.942626953,17.2833473,62.3954711,-1,,
1.52629E+12,0.118286133,-0.001953125,0.941650391,17.2833473,62.3954711,-1,,
1.52629E+12,0.147949219,0.022216797,0.985839844,17.2833473,62.3954711,-1,,
1.52629E+12,0.087280273,-0.021972656,0.967407227,17.2833473,62.3954711,-1,,
1.52629E+12,0.067993164,0.035888672,1.037475586,17.2833473,62.3954711,-1,,
1.52629E+12,0.066772461,0.097167969,1.081420898,17.2833473,62.3954711,-1,,
1.52629E+12,0.129272461,0.065185547,0.976928711,17.2833473,62.3954711,-1,,
1.52629E+12,0.067016602,0.012817383,1.023071289,17.2833473,62.3954711,-1,,
1.52629E+12,0.119018555,0.065917969,0.95715332,17.2833312,62.3954499,-1,,
1.52629E+12,0.086914063,0.08984375,1.059082031,17.2833312,62.3954499,-1,,
1.52629E+12,0.08996582,0.108398438,1.03503418,17.2833312,62.3954499,-1,,
1.52629E+12,0.138183594,0.056518555,1.043579102,17.2833312,62.3954499,-1,,
1.52629E+12,0.121459961,0.057250977,1.031616211,17.2833312,62.3954499,-1,,
1.52629E+12,0.134521484,0.083129883,0.966186523,17.2833312,62.3954499,-1,,
1.52629E+12,0.135253906,0.139770508,0.935180664,17.2833312,62.3954499,-1,,
1.52629E+12,0.133911133,0.083740234,1.009399414,17.2833312,62.3954499,-1,,
1.52629E+12,0.1796875,0.049194336,1.053833008,17.2833312,62.3954499,-1,,
1.52629E+12,0.159301758,0.025512695,0.971923828,17.2833312,62.3954499,-1,,
1.52629E+12,0.134643555,0.03894043,0.996459961,17.2833065,62.3954229,-1,,
1.52629E+12,0.178955078,0.043212891,0.996826172,17.2833065,62.3954229,-1,,
1.52629E+12,0.162719727,0.051269531,1.017578125,17.2833065,62.3954229,-1,,
1.52629E+12,0.163330078,0.019287109,1.073120117,17.2833065,62.3954229,-1,,
1.52629E+12,0.155883789,0.021118164,1.022705078,17.2833065,62.3954229,-1,,
1.52629E+12,0.157714844,-0.00378418,0.985107422,17.2833065,62.3954229,-1,,
1.52629E+12,0.170776367,-0.001953125,0.996459961,17.2833065,62.3954229,-1,,
1.52629E+12,0.12512207,0.030883789,1.054199219,17.2833065,62.3954229,-1,,
1.52629E+12,0.156860352,0.014892578,1.001831055,17.2833065,62.3954229,-1,,
1.52629E+12,0.181396484,-0.011230469,1.031860352,17.2832752,62.3953954,-1,,
1.52629E+12,0.188354492,0.027954102,1.006835938,17.2832752,62.3953954,-1,,
1.52629E+12,0.141113281,0.030761719,1.017822266,17.2832566,62.3953791,-1,,
1.52629E+12,0.17175293,0.025634766,0.982421875,17.2832566,62.3953791,-1,,
1.52629E+12,0.159423828,0.00378418,1.078613281,17.2832566,62.3953791,-1,,
1.52629E+12,0.167724609,0.015136719,1.000366211,17.2832566,62.3953791,-1,,
1.52629E+12,0.200683594,0.012451172,1.022583008,17.2832566,62.3953791,-1,,
1.52629E+12,0.153686523,-0.006591797,0.985961914,17.2832566,62.3953791,-1,,
1.52629E+12,0.170776367,0.014038086,1.016723633,17.2832566,62.3953791,-1,,
1.52629E+12,0.151245117,-0.009399414,1.034912109,17.2832566,62.3953791,-1,,
1.52629E+12,0.217773438,-0.023803711,1.015136719,17.2832309,62.3953619,-1,,
1.52629E+12,0.201538086,-0.041015625,0.959716797,17.2832309,62.3953619,-1,,
1.52629E+12,0.194458008,-0.056884766,0.969482422,17.2832309,62.3953619,-1,,
1.52629E+12,0.169067383,0.01550293,0.92578125,17.2832309,62.3953619,-1,,
1.52629E+12,0.201171875,-0.057739258,0.966918945,17.2832309,62.3953619,-1,,
1.52629E+12,0.226074219,-0.038574219,1.001708984,17.2832309,62.3953619,-1,,
1.52629E+12,0.202148438,0.010498047,0.996337891,17.2832309,62.3953619,-1,,
1.52629E+12,0.16796875,-0.062988281,1.031860352,17.2832309,62.3953619,-1,,
1.52629E+12,0.140625,-0.067749023,0.981079102,17.2831979,62.3953455,-1,,
1.52629E+12,0.117797852,-0.031860352,0.992553711,17.2831979,62.3953455,-1,,
1.52629E+12,0.135009766,-0.022949219,0.94934082,17.2831979,62.3953455,-1,,
1.52629E+12,0.195068359,-0.057617188,0.941162109,17.2831979,62.3953455,-1,,
1.52629E+12,0.151489258,-0.029663086,0.940307617,17.2831979,62.3953455,-1,,
1.52629E+12,0.201293945,-0.092529297,0.962646484,17.2831979,62.3953455,-1,,
1.52629E+12,0.163208008,-0.056762695,0.996704102,17.2831979,62.3953455,-1,,
1.52629E+12,0.14440918,-0.031738281,1.003417969,17.2831979,62.3953455,-1,,
1.52629E+12,0.118896484,-0.039306641,1.019287109,17.2831979,62.3953455,-1,,
1.52629E+12,0.075073242,-0.029418945,1.039550781,17.2831979,62.3953455,-1,,
1.52629E+12,0.118774414,-0.094116211,1.002075195,17.2831979,62.3953455,-1,,
1.52629E+12,0.091064453,-0.062988281,1.013793945,17.2831552,62.3953311,-1,,
1.52629E+12,0.073852539,-0.063232422,0.946899414,17.2831552,62.3953311,-1,,
1.52629E+12,0.180664063,-0.020263672,0.948242188,17.2831552,62.3953311,-1,,
1.52629E+12,0.139526367,-0.040161133,0.939575195,17.2831552,62.3953311,-1,,
1.52629E+12,0.14050293,0.012207031,0.971557617,17.2831552,62.3953311,-1,,
1.52629E+12,0.139648438,0.11315918,1.001342773,17.2831552,62.3953311,-1,,
1.52629E+12,0.07824707,-0.050048828,1.049926758,17.2831552,62.3953311,-1,,
1.52629E+12,0.162719727,-0.032714844,1.010009766,17.2831552,62.3953311,-1,,
1.52629E+12,0.173095703,-0.026123047,0.978149414,17.2831552,62.3953311,-1,,
1.52629E+12,0.108154297,0.004882813,0.981445313,17.2831067,62.3953215,-1,,
1.52629E+12,0.141357422,-0.03503418,1.002929688,17.2831067,62.3953215,-1,,
1.52629E+12,0.140991211,-0.067504883,0.959960938,17.2831067,62.3953215,-1,,
1.52629E+12,0.135253906,-0.031005859,0.985351563,17.2831067,62.3953215,-1,,
1.52629E+12,0.170532227,0.024047852,0.957641602,17.2831067,62.3953215,-1,,
1.52629E+12,0.173828125,0.005126953,0.997924805,17.2831067,62.3953215,-1,,
1.52629E+12,0.161865234,-0.036254883,0.994384766,17.2831067,62.3953215,-1,,
1.52629E+12,0.146606445,-0.024414063,0.967163086,17.2831067,62.3953215,-1,,
1.52629E+12,0.118896484,-0.032470703,1.02722168,17.2831067,62.3953215,-1,,
1.52629E+12,0.119995117,-0.052368164,0.9609375,17.2831067,62.3953215,-1,,
1.52629E+12,0.149414063,-0.00378418,0.996582031,17.2830519,62.3953161,-1,,
1.52629E+12,0.08203125,0.011474609,0.974365234,17.2830519,62.3953161,-1,,
1.52629E+12,0.100585938,-0.022705078,1.017944336,17.2830519,62.3953161,-1,,
1.52629E+12,0.115966797,-0.032592773,1.020263672,17.2830519,62.3953161,-1,,
1.52629E+12,0.083007813,-0.059204102,0.981079102,17.2830146,62.3953125,-1,,
1.52629E+12,0.114501953,-0.020385742,1.021240234,17.2830146,62.3953125,-1,,
1.52629E+12,0.133056641,-0.046142578,0.978881836,17.2830146,62.3953125,-1,,
1.52629E+12,0.115600586,-0.024291992,0.939086914,17.2830146,62.3953125,-1,,
1.52629E+12,0.157348633,0.035644531,0.999023438,17.2830146,62.3953125,-1,,
1.52629E+12,0.170898438,-0.004394531,0.970825195,17.2829701,62.3953135,-1,,
1.52629E+12,0.175292969,-0.02355957,0.991210938,17.2829701,62.3953135,-1,,
1.52629E+12,0.165527344,-0.01940918,0.933105469,17.2829701,62.3953135,-1,,
1.52629E+12,0.125732422,-0.03515625,1.006958008,17.2829701,62.3953135,-1,,
1.52629E+12,0.092651367,-0.030151367,1.004638672,17.2829701,62.3953135,-1,,
1.52629E+12,0.057739258,-0.033447266,0.989868164,17.2829701,62.3953135,-1,,
1.52629E+12,0.092529297,-0.071533203,1.034179688,17.2829701,62.3953135,-1,,
1.52629E+12,0.068603516,-0.032348633,0.984619141,17.2829701,62.3953135,-1,,
1.52629E+12,0.079345703,-0.027832031,1.047485352,17.2829701,62.3953135,-1,,
1.52629E+12,0.100830078,-0.068847656,0.966064453,17.2829139,62.3953201,-1,,
1.52629E+12,0.073608398,-0.089355469,0.969360352,17.2829139,62.3953201,-1,,
1.52629E+12,0.07800293,-0.06652832,0.981567383,17.2829139,62.3953201,-1,,
1.52629E+12,0.079467773,-0.057495117,0.956420898,17.2829139,62.3953201,-1,,
1.52629E+12,0.083984375,-0.065429688,1.034423828,17.2829139,62.3953201,-1,,
1.52629E+12,0.080932617,-0.095214844,1.039550781,17.2829139,62.3953201,-1,,
1.52629E+12,0.085083008,-0.120849609,1.005004883,17.2828536,62.3953336,-1,,
1.52629E+12,0.047363281,-0.071289063,1.014160156,17.2828536,62.3953336,-1,,
1.52629E+12,0.094726563,-0.107299805,1.020141602,17.2828536,62.3953336,-1,,
1.52629E+12,0.03125,-0.073730469,1.005249023,17.2828536,62.3953336,-1,,
1.52629E+12,0.088623047,-0.06237793,1.017456055,17.2828536,62.3953336,-1,,
1.52629E+12,0.074462891,-0.090942383,0.989013672,17.2828536,62.3953336,-1,,
1.52629E+12,0.098388672,-0.088867188,0.992553711,17.2828536,62.3953336,-1,,
1.52629E+12,0.097167969,-0.05871582,0.96472168,17.2828536,62.3953336,-1,,
1.52629E+12,0.084106445,-0.085205078,1.022338867,17.2828536,62.3953336,-1,,
1.52629E+12,0.116699219,-0.074951172,0.997802734,17.2828536,62.3953336,-1,,
1.52629E+12,0.077880859,-0.055908203,1.006591797,17.2827037,62.395385,-1,,
1.52629E+12,0.091430664,-0.078125,1.005859375,17.2827037,62.395385,-1,,
1.52629E+12,0.087280273,-0.090209961,1.045166016,17.2827037,62.395385,-1,,
1.52629E+12,0.103759766,-0.100097656,0.998901367,17.2827037,62.395385,-1,,
1.52629E+12,0.083984375,-0.109008789,1.041503906,17.2827037,62.395385,-1,,
1.52629E+12,0.117919922,-0.079833984,0.950195313,17.2827037,62.395385,-1,,
1.52629E+12,0.119995117,-0.053710938,1.012329102,17.2827037,62.395385,-1,,
1.52629E+12,0.081054688,0.019775391,1.052368164,17.2827037,62.395385,-1,,
1.52629E+12,0.099731445,0.018066406,1.068237305,17.2827037,62.395385,-1,,
1.52629E+12,0.100585938,0.010253906,0.994628906,17.2827037,62.395385,-1,,
1.52629E+12,0.115844727,-0.005615234,0.92578125,17.2827037,62.395385,-1,,
1.52629E+12,0.120849609,0.024658203,0.991943359,17.2826452,62.3954211,-1,,
1.52629E+12,0.134399414,-0.080444336,0.998046875,17.2826452,62.3954211,-1,,
1.52629E+12,0.114624023,-0.255981445,1.123291016,17.2826452,62.3954211,-1,,
1.52629E+12,0.090454102,-0.005126953,1.03527832,17.2826452,62.3954211,-1,,
1.52629E+12,0.094970703,-0.09765625,1.005126953,17.2826452,62.3954211,-1,,
1.52629E+12,0.194458008,-0.071533203,1.014526367,17.2826452,62.3954211,-1,,
1.52629E+12,0.192016602,-0.151489258,0.904541016,17.2826452,62.3954211,-1,,
1.52629E+12,0.12902832,-0.080810547,0.979370117,17.2825891,62.3954576,-1,,
1.52629E+12,0.110229492,-0.043334961,1.024536133,17.2825891,62.3954576,-1,,
1.52629E+12,0.157958984,-0.069946289,0.906616211,17.2825891,62.3954576,-1,,
1.52629E+12,0.160644531,-0.051635742,1.039794922,17.2825891,62.3954576,-1,,
1.52629E+12,0.219970703,-0.085205078,1.033203125,17.2825891,62.3954576,-1,,
1.52629E+12,0.164306641,-0.049926758,0.998046875,17.2825891,62.3954576,-1,,
1.52629E+12,0.066162109,-0.009399414,1.153320313,17.2825891,62.3954576,-1,,
1.52629E+12,0.207519531,-0.030395508,0.993041992,17.2825891,62.3954576,-1,,
1.52629E+12,0.203857422,-0.022094727,1.035644531,17.2825891,62.3954576,-1,,
1.52629E+12,0.184082031,-0.002075195,0.975219727,17.2825891,62.3954576,-1,,
1.52629E+12,0.13659668,-0.007568359,1.049438477,17.2825891,62.3954576,-1,,
1.52629E+12,0.150878906,0.024902344,0.978271484,17.2825891,62.3954576,-1,,
1.52629E+12,0.159179688,0.07434082,1.023193359,17.2825403,62.395495,-1,,
1.52629E+12,0.192749023,-0.028686523,0.885498047,17.2825403,62.395495,-1,,
1.52629E+12,0.255371094,-0.047241211,0.962280273,17.2825403,62.395495,-1,,
1.52629E+12,0.203735352,-0.020874023,0.999145508,17.2825403,62.395495,-1,,
1.52629E+12,0.19140625,-0.030395508,1.020141602,17.2825403,62.395495,-1,,
1.52629E+12,0.186523438,-0.038208008,1.045288086,17.2825403,62.395495,-1,,
1.52629E+12,0.168579102,0.018554688,1.007568359,17.2825403,62.395495,-1,,
1.52629E+12,0.180175781,-0.008666992,1.021240234,17.2825403,62.395495,-1,,
1.52629E+12,0.16796875,0.009521484,0.983276367,17.2825403,62.395495,-1,,
1.52629E+12,0.150756836,-0.008911133,0.961669922,17.2825241,62.3955161,-1,,
1.52629E+12,0.14453125,0.036743164,0.974975586,17.2825241,62.3955161,-1,,
1.52629E+12,0.115234375,0.029418945,1.014648438,17.2825241,62.3955161,-1,,
1.52629E+12,0.121459961,-0.014892578,1.008422852,17.2825241,62.3955161,-1,,
1.52629E+12,0.188964844,-0.004394531,0.962524414,17.2825241,62.3955161,-1,,
1.52629E+12,0.14440918,-0.015380859,1.006591797,17.2825241,62.3955161,-1,,
1.52629E+12,0.159667969,0.040649414,0.936401367,17.2825241,62.3955161,-1,,
1.52629E+12,0.095581055,0.034545898,1.01184082,17.2825241,62.3955161,-1,,
1.52629E+12,0.05065918,-0.000488281,1.038085938,17.2825241,62.3955161,-1,,
1.52629E+12,0.046142578,-0.01184082,1.058837891,17.2825125,62.395541,-1,,
1.52629E+12,0.163330078,-0.065063477,1.034301758,17.2825125,62.395541,-1,,
1.52629E+12,0.060180664,-0.005371094,0.967041016,17.2825125,62.395541,-1,,
1.52629E+12,0.107299805,-0.082275391,0.904174805,17.2825125,62.395541,-1,,
1.52629E+12,0.018798828,-0.033569336,0.905395508,17.2825125,62.395541,-1,,
1.52629E+12,0.048461914,-0.037719727,0.988647461,17.2825125,62.395541,-1,,
1.52629E+12,0.05847168,-0.047973633,1.03515625,17.2825125,62.395541,-1,,
1.52629E+12,0.015258789,-0.098999023,1.013549805,17.2825108,62.3955667,-1,,
1.52629E+12,0.034667969,-0.081176758,1.004760742,17.2825108,62.3955667,-1,,
1.52629E+12,0.022827148,-0.03515625,0.963012695,17.2825108,62.3955667,-1,,
1.52629E+12,0.033081055,-0.006835938,1.029418945,17.2825108,62.3955667,-1,,
1.52629E+12,0.039306641,-0.028198242,1.068115234,17.2825108,62.3955667,-1,,
1.52629E+12,0.008789063,-0.037597656,0.998168945,17.2825108,62.3955667,-1,,
1.52629E+12,0.044555664,-0.006713867,1.029052734,17.2825108,62.3955667,-1,,
1.52629E+12,0.007080078,-0.057983398,1.005615234,17.2825108,62.3955667,-1,,
1.52629E+12,0.056030273,-0.057250977,1.012817383,17.2825108,62.3955667,-1,,
1.52629E+12,0.048461914,-0.055297852,0.989379883,17.2825108,62.3955667,-1,,
1.52629E+12,0.051269531,-0.028930664,1.06237793,17.2825212,62.3955933,-1,,
1.52629E+12,0.045776367,-0.054321289,1.040283203,17.282527,62.3956079,-1,,
1.52629E+12,0.048950195,-0.067138672,0.977294922,17.282527,62.3956079,-1,,
1.52629E+12,0.050170898,-0.040283203,0.995361328,17.282527,62.3956079,-1,,
1.52629E+12,0.025024414,-0.045043945,1.004882813,17.282527,62.3956079,-1,,
1.52629E+12,0.033081055,-0.013916016,1.032104492,17.282527,62.3956079,-1,,
1.52629E+12,0.031616211,-0.041503906,1.030151367,17.282527,62.3956079,-1,,
1.52629E+12,0.02734375,-0.066040039,1.057983398,17.282527,62.3956079,-1,,
1.52629E+12,0.011108398,-0.009277344,0.982055664,17.282527,62.3956079,-1,,
1.52629E+12,0.03527832,-0.028564453,0.967529297,17.282527,62.3956079,-1,,
1.52629E+12,0.057373047,-0.064941406,0.966064453,17.282527,62.3956079,-1,,
1.52629E+12,0.019042969,-0.015380859,0.976196289,17.2825456,62.3956308,-1,,
1.52629E+12,0.025512695,-0.015014648,1.007568359,17.2825456,62.3956308,-1,,
1.52629E+12,0.030883789,-0.018066406,1.005981445,17.2825456,62.3956308,-1,,
1.52629E+12,0.017211914,-0.024658203,1.021240234,17.2825456,62.3956308,-1,,
1.52629E+12,0.052368164,-0.040893555,0.993041992,17.2825456,62.3956308,-1,,
1.52629E+12,0.036254883,-0.040039063,0.990478516,17.2825456,62.3956308,-1,,
1.52629E+12,0.035522461,-0.033691406,1.000854492,17.2825456,62.3956308,-1,,
1.52629E+12,0.014770508,-0.01184082,1.012695313,17.2825648,62.3956479,-1,,
1.52629E+12,0.037597656,-0.03137207,0.998291016,17.2825648,62.3956479,-1,,
1.52629E+12,0.024414063,-0.042236328,0.991699219,17.2825648,62.3956479,-1,,
1.52629E+12,0.057617188,-0.037597656,1.008789063,17.2825648,62.3956479,-1,,
1.52629E+12,0.039306641,-0.073364258,0.970336914,17.2825648,62.3956479,-1,,
1.52629E+12,0.048339844,-0.057128906,1.002807617,17.2825648,62.3956479,-1,,
1.52629E+12,0.036621094,-0.041992188,0.998168945,17.2825648,62.3956479,-1,,
1.52629E+12,0.041625977,-0.001708984,0.989868164,17.2825648,62.3956479,-1,,
1.52629E+12,0.012573242,-0.041870117,0.962402344,17.2825648,62.3956479,-1,,
1.52629E+12,0.047363281,-0.007568359,1.01940918,17.282594,62.3956709,-1,,
1.52629E+12,0.092651367,-0.02355957,1.013427734,17.282594,62.3956709,-1,,
1.52629E+12,0.086547852,-0.03527832,0.990234375,17.282594,62.3956709,-1,,
1.52629E+12,0.049438477,-0.01953125,1.001464844,17.282594,62.3956709,-1,,
1.52629E+12,0.065429688,-0.018310547,0.9765625,17.282594,62.3956709,-1,,
1.52629E+12,0.060668945,-0.029174805,0.987304688,17.282594,62.3956709,-1,,
1.52629E+12,0.088256836,-0.025146484,1.008178711,17.282594,62.3956709,-1,,
1.52629E+12,0.072631836,-0.036132813,0.985961914,17.282594,62.3956709,-1,,
1.52629E+12,0.049682617,-0.039428711,1.022216797,17.282594,62.3956709,-1,,
1.52629E+12,0.08215332,-0.018066406,0.966552734,17.2826291,62.3956963,-1,,
1.52629E+12,0.076538086,-0.017944336,1.007202148,17.2826291,62.3956963,-1,,
1.52629E+12,0.068237305,-0.00402832,1.003051758,17.2826291,62.3956963,-1,,
1.52629E+12,0.041381836,0.002319336,1.030029297,17.2826291,62.3956963,-1,,
1.52629E+12,0.038696289,-0.004638672,1.033813477,17.2826291,62.3956963,-1,,
1.52629E+12,0.027832031,-0.007202148,0.96105957,17.2826291,62.3956963,-1,,
1.52629E+12,0.050292969,0.036376953,1.026367188,17.2826291,62.3956963,-1,,
1.52629E+12,0.08984375,0.118530273,1.089111328,17.2826291,62.3956963,-1,,
1.52629E+12,0.038330078,-0.060424805,0.979003906,17.2826291,62.3956963,-1,,
1.52629E+12,0.096557617,-0.025024414,0.951293945,17.2826291,62.3956963,-1,,
1.52629E+12,0.102416992,-0.044433594,0.966552734,17.2826674,62.395722,-1,,
1.52629E+12,0.107055664,-0.060302734,0.985839844,17.2826674,62.395722,-1,,
1.52629E+12,0.030517578,-0.038818359,1.017944336,17.2826674,62.395722,-1,,
1.52629E+12,0.057495117,-0.022216797,0.965209961,17.2826674,62.395722,-1,,
1.52629E+12,0.140014648,-0.037109375,0.927978516,17.2826674,62.395722,-1,,
1.52629E+12,0.106689453,0.228393555,1.031494141,17.2826674,62.395722,-1,,
1.52629E+12,0.032104492,0.066040039,1.028320313,17.2826674,62.395722,-1,,
1.52629E+12,0.065795898,0.060058594,0.940063477,17.2826674,62.395722,-1,,
1.52629E+12,0.088256836,0.056152344,0.932128906,17.2826674,62.395722,-1,,
1.52629E+12,0.189086914,0.020874023,0.920043945,17.2827076,62.3957455,-1,,
1.52629E+12,0.125366211,-0.041137695,1.023925781,17.2827076,62.3957455,-1,,
1.52629E+12,0.112670898,-0.041870117,1.018676758,17.2827076,62.3957455,-1,,
1.52629E+12,0.049438477,-0.070556641,0.912597656,17.2827076,62.3957455,-1,,
1.52629E+12,0.19909668,-0.10559082,1.01171875,17.2827076,62.3957455,-1,,
1.52629E+12,0.181884766,-0.149902344,1.018920898,17.2827076,62.3957455,-1,,
1.52629E+12,0.16027832,-0.027709961,1.04699707,17.2827076,62.3957455,-1,,
1.52629E+12,0.154907227,-0.139526367,1.026000977,17.2827076,62.3957455,-1,,
1.52629E+12,0.127441406,-0.041625977,1.007446289,17.2827549,62.3957665,-1,,
1.52629E+12,0.180664063,-0.025512695,1.000732422,17.2827549,62.3957665,-1,,
1.52629E+12,0.214599609,-0.022827148,0.93359375,17.2827549,62.3957665,-1,,
1.52629E+12,0.263671875,0.005371094,0.961791992,17.2827549,62.3957665,-1,,
1.52629E+12,0.242797852,-0.083984375,1.026245117,17.2827549,62.3957665,-1,,
1.52629E+12,0.24609375,-0.026000977,0.947265625,17.2827549,62.3957665,-1,,
1.52629E+12,0.219238281,-0.069702148,0.996582031,17.2827549,62.3957665,-1,,
1.52629E+12,0.185424805,-0.061157227,0.963256836,17.2827549,62.3957665,-1,,
1.52629E+12,0.261474609,-0.056884766,1.009521484,17.2827549,62.3957665,-1,,
1.52629E+12,0.249267578,-0.071289063,1.033447266,17.2827549,62.3957665,-1,,
1.52629E+12,0.216552734,-0.053955078,1.028686523,17.2827549,62.3957665,-1,,
1.52629E+12,0.220581055,-0.065795898,1.050048828,17.2827549,62.3957665,-1,,
1.52629E+12,0.18762207,-0.051391602,1.063476563,17.2829446,62.3958207,-1,,
1.52629E+12,0.179199219,-0.079956055,0.947509766,17.2829446,62.3958207,-1,,
1.52629E+12,0.141235352,-0.044189453,0.970458984,17.2829446,62.3958207,-1,,
1.52629E+12,0.092651367,-0.079589844,1.014648438,17.2829446,62.3958207,-1,,
1.52629E+12,0.079711914,-0.099853516,1.000488281,17.2829446,62.3958207,-1,,
1.52629E+12,0.135009766,-0.053955078,1.025390625,17.2829446,62.3958207,-1,,
1.52629E+12,0.075317383,-0.073852539,1.010864258,17.2829446,62.3958207,-1,,
1.52629E+12,0.064819336,-0.076538086,1.061523438,17.2829446,62.3958207,-1,,
1.52629E+12,0.11315918,-0.087158203,0.974121094,17.2829446,62.3958207,-1,,
1.52629E+12,0.006469727,-0.031738281,1.066040039,17.2831054,62.3957855,-1,,
1.52629E+12,0.008056641,-0.033935547,1.020385742,17.2831054,62.3957855,-1,,
1.52629E+12,0.012817383,-0.016845703,1.034790039,17.2831054,62.3957855,-1,,
1.52629E+12,0.006347656,-0.013671875,1.056640625,17.2831054,62.3957855,-1,,
1.52629E+12,0.005615234,0.010864258,1.001220703,17.2831054,62.3957855,-1,,
1.52629E+12,0.110961914,-0.026367188,0.95703125,17.2831054,62.3957855,-1,,
1.52629E+12,0.004516602,0.025390625,0.941162109,17.2831054,62.3957855,-1,,
1.52629E+12,0.022583008,0.0234375,0.979492188,17.2832105,62.3957644,-1,,
1.52629E+12,0.086303711,0.033203125,0.947631836,17.2832105,62.3957644,-1,,
1.52629E+12,0.032836914,0.015014648,0.998291016,17.2832105,62.3957644,-1,,
1.52629E+12,-0.025268555,-0.016601563,1.059692383,17.2832105,62.3957644,-1,,
1.52629E+12,0.016113281,-0.001342773,1.005859375,17.2832105,62.3957644,-1,,
1.52629E+12,0.000610352,-0.022949219,0.994873047,17.2832105,62.3957644,-1,,
1.52629E+12,0.028198242,-0.024902344,0.97265625,17.2832105,62.3957644,-1,,
1.52629E+12,0.042114258,-0.034179688,1.015869141,17.2832105,62.3957644,-1,,
1.52629E+12,0.041503906,-0.111816406,0.98046875,17.2832105,62.3957644,-1,,
1.52629E+12,0.061035156,-0.032714844,1.044921875,17.2832105,62.3957644,-1,,
1.52629E+12,0.052978516,-0.078613281,1.012817383,17.2833078,62.3957337,-1,,
1.52629E+12,0.044799805,-0.056152344,1.006591797,17.2833078,62.3957337,-1,,
1.52629E+12,0.014038086,-0.03918457,1.002807617,17.2833078,62.3957337,-1,,
1.52629E+12,0.042602539,-0.068847656,1.006225586,17.2833078,62.3957337,-1,,
1.52629E+12,0.069702148,-0.069335938,0.959716797,17.2833078,62.3957337,-1,,
1.52629E+12,0.03112793,-0.024658203,0.971557617,17.2833078,62.3957337,-1,,
1.52629E+12,0.024169922,-0.057739258,0.933837891,17.2833078,62.3957337,-1,,
1.52629E+12,0.037963867,-0.001220703,1.071655273,17.2833078,62.3957337,-1,,
1.52629E+12,0.081298828,-0.026977539,0.973388672,17.2833078,62.3957337,-1,,
1.52629E+12,0.07421875,-0.008911133,0.958984375,17.2834215,62.395713,-1,,
1.52629E+12,0.068725586,-0.00012207,0.966186523,17.2834215,62.395713,-1,,
1.52629E+12,0.026489258,-0.012084961,1.013916016,17.2834215,62.395713,-1,,
1.52629E+12,0.04296875,-0.032470703,0.985595703,17.2834215,62.395713,-1,,
1.52629E+12,0.041503906,-0.045532227,0.979858398,17.2834215,62.395713,-1,,
1.52629E+12,0.0546875,0.048339844,0.969482422,17.2834215,62.395713,-1,,
1.52629E+12,-0.015625,0.02746582,1.146484375,17.2834215,62.395713,-1,,
1.52629E+12,0.055786133,0.014038086,0.947753906,17.2834215,62.395713,-1,,
1.52629E+12,0.071533203,-0.00793457,1.01574707,17.2834215,62.395713,-1,,
1.52629E+12,0.045166016,0.005126953,1.040771484,17.2835397,62.3956824,-1,,
1.52629E+12,0.063110352,-0.019287109,0.995849609,17.2835397,62.3956824,-1,,
1.52629E+12,0.00378418,0.020751953,0.998413086,17.2835397,62.3956824,-1,,
1.52629E+12,0.059570313,0.024658203,1.062744141,17.2835397,62.3956824,-1,,
1.52629E+12,0.094238281,-0.012939453,0.980834961,17.2835397,62.3956824,-1,,
1.52629E+12,0.044189453,-0.01953125,1.004760742,17.2835397,62.3956824,-1,,
1.52629E+12,0.080200195,0.034301758,0.945922852,17.2835397,62.3956824,-1,,
1.52629E+12,0.074462891,-0.022460938,1.00012207,17.2835397,62.3956824,-1,,
1.52629E+12,0.01953125,-0.020385742,0.996459961,17.2835397,62.3956824,-1,,
1.52629E+12,0.051147461,-0.028930664,0.912963867,17.2835397,62.3956824,-1,,
1.52629E+12,-0.014160156,-0.025024414,0.9609375,17.2835397,62.3956824,-1,,
1.52629E+12,0.004760742,0.004272461,1.066040039,17.2836659,62.395653,-1,,
1.52629E+12,0.042602539,-0.037597656,1.060424805,17.2836659,62.395653,-1,,
1.52629E+12,0.03137207,-0.056030273,0.977905273,17.2836659,62.395653,-1,,
1.52629E+12,0.012939453,-0.013427734,0.980102539,17.2836659,62.395653,-1,,
1.52629E+12,0.035400391,-0.035766602,0.992675781,17.2836659,62.395653,-1,,
1.52629E+12,0.031494141,-0.027099609,1.010131836,17.2836659,62.395653,-1,,
1.52629E+12,0.03137207,0.001098633,0.984863281,17.2836659,62.395653,-1,,
1.52629E+12,0.024047852,-0.052856445,1.043701172,17.2836659,62.395653,-1,,
1.52629E+12,0.072753906,-0.01550293,1.038452148,17.2836659,62.395653,-1,,
1.52629E+12,0.002319336,-0.033447266,1.02331543,17.2837966,62.3956214,-1,,
1.52629E+12,0.005371094,-0.002319336,1.013671875,17.2837966,62.3956214,-1,,
1.52629E+12,0.008666992,0.011474609,1.092529297,17.2837966,62.3956214,-1,,
1.52629E+12,0.022705078,-0.013427734,0.990966797,17.2837966,62.3956214,-1,,
1.52629E+12,0.050415039,0.011108398,0.995483398,17.2837966,62.3956214,-1,,
1.52629E+12,0.074951172,-0.001953125,1.04699707,17.2837966,62.3956214,-1,,
1.52629E+12,0.036254883,0.002929688,1.028320313,17.2837966,62.3956214,-1,,
1.52629E+12,0.019897461,-0.05078125,1.01159668,17.2839224,62.3955953,-1,,
1.52629E+12,0.03527832,0.000610352,1.048950195,17.2839224,62.3955953,-1,,
1.52629E+12,0.056152344,-0.052978516,1.014526367,17.2839224,62.3955953,-1,,
1.52629E+12,-0.008544922,0.057006836,1.14855957,17.2839224,62.3955953,-1,,
1.52629E+12,-0.036865234,-0.029296875,1.018188477,17.2839224,62.3955953,-1,,
1.52629E+12,0.021728516,0.05090332,0.966430664,17.2839224,62.3955953,-1,,
1.52629E+12,0.062988281,-0.004760742,1.037231445,17.2839224,62.3955953,-1,,
1.52629E+12,-0.036499023,0.023925781,1.091186523,17.2839224,62.3955953,-1,,
1.52629E+12,-0.012329102,0.033447266,1.095947266,17.2839224,62.3955953,-1,,
1.52629E+12,0.058837891,0.041259766,0.920288086,17.2839224,62.3955953,-1,,
1.52629E+12,0.054321289,-0.070800781,1.041625977,17.2840543,62.3955652,-1,,
1.52629E+12,0.027709961,0.002929688,1.030639648,17.2840543,62.3955652,-1,,
1.52629E+12,0.073242188,0.032470703,0.927856445,17.2840543,62.3955652,-1,,
1.52629E+12,0.080078125,-0.015380859,1.055908203,17.2840543,62.3955652,-1,,
1.52629E+12,0.050415039,0.039428711,1.036621094,17.2840543,62.3955652,-1,,
1.52629E+12,0.022216797,0.067993164,1.061157227,17.2840543,62.3955652,-1,,
1.52629E+12,0.057617188,-0.021118164,1.008300781,17.2840543,62.3955652,-1,,
1.52629E+12,0.061035156,-0.003540039,1.001220703,17.2840543,62.3955652,-1,,
1.52629E+12,0.094970703,-0.043701172,0.956665039,17.2840543,62.3955652,-1,,
1.52629E+12,0.007568359,0.024536133,1.032348633,17.2841915,62.3955286,-1,,
1.52629E+12,0.026855469,-0.021118164,0.987060547,17.2841915,62.3955286,-1,,
1.52629E+12,0.017944336,-0.026245117,1.0234375,17.2841915,62.3955286,-1,,
1.52629E+12,0.115356445,0.000854492,1.009033203,17.2841915,62.3955286,-1,,
1.52629E+12,0.082763672,0.044067383,0.935302734,17.2841915,62.3955286,-1,,
1.52629E+12,0.071899414,-0.009155273,1.034057617,17.2841915,62.3955286,-1,,
1.52629E+12,0.066040039,-0.000610352,1.001464844,17.2841915,62.3955286,-1,,
1.52629E+12,0.045898438,-0.0390625,0.991455078,17.2843417,62.395496,-1,,
1.52629E+12,0.069213867,0.006347656,0.985473633,17.2843417,62.395496,-1,,
1.52629E+12,0.076171875,0.011962891,1.028930664,17.2843417,62.395496,-1,,
1.52629E+12,0.075317383,-0.048461914,0.960693359,17.2843417,62.395496,-1,,
1.52629E+12,0.017944336,0.032714844,1.005493164,17.2843417,62.395496,-1,,
1.52629E+12,0.005737305,-0.013427734,1.028686523,17.2843417,62.395496,-1,,
1.52629E+12,0.061401367,-0.005004883,1.013793945,17.2843417,62.395496,-1,,
1.52629E+12,0.057739258,0.031982422,1.048461914,17.2843417,62.395496,-1,,
1.52629E+12,-0.000244141,0.00769043,1.017211914,17.2843417,62.395496,-1,,
1.52629E+12,0.041259766,0.037719727,0.984619141,17.2843417,62.395496,-1,,
1.52629E+12,0.043579102,-0.010620117,1.006347656,17.2843417,62.395496,-1,,
1.52629E+12,0.050537109,-0.018432617,0.959716797,17.2843417,62.395496,-1,,
1.52629E+12,0.080444336,-0.004394531,1.01550293,17.2844801,62.3954695,-1,,
1.52629E+12,0.01965332,-0.029052734,1.024902344,17.2844801,62.3954695,-1,,
1.52629E+12,0.003173828,-0.021728516,1.101318359,17.2844801,62.3954695,-1,,
1.52629E+12,-0.014770508,-0.028076172,1.032592773,17.2844801,62.3954695,-1,,
1.52629E+12,-0.013305664,0.014770508,1.010864258,17.2844801,62.3954695,-1,,
1.52629E+12,0.024414063,0.038818359,1.115844727,17.2844801,62.3954695,-1,,
1.52629E+12,0.097167969,-0.012207031,0.993041992,17.2844801,62.3954695,-1,,
1.52629E+12,0.001098633,0.043212891,0.974731445,17.2844801,62.3954695,-1,,
1.52629E+12,0.098022461,0.027954102,0.954467773,17.2844801,62.3954695,-1,,
1.52629E+12,0.106445313,0.023071289,0.932250977,17.2844801,62.3954695,-1,,
1.52629E+12,0.030273438,-0.008789063,1.104125977,17.2844801,62.3954695,-1,,
1.52629E+12,0.082275391,-0.014526367,0.991699219,17.2846192,62.3954323,-1,,
1.52629E+12,0.030517578,-0.02355957,1.068725586,17.2846192,62.3954323,-1,,
1.52629E+12,0.06640625,0.003662109,1.024780273,17.2846192,62.3954323,-1,,
1.52629E+12,0.098266602,0.005859375,0.997680664,17.2846192,62.3954323,-1,,
1.52629E+12,0.063842773,0.035522461,0.989379883,17.2846192,62.3954323,-1,,
1.52629E+12,0.071411133,0.000244141,0.999267578,17.2846192,62.3954323,-1,,
1.52629E+12,0.059936523,0.005615234,1.008300781,17.2846192,62.3954323,-1,,
1.52629E+12,0.050292969,0.047241211,1.004394531,17.2846192,62.3954323,-1,,
1.52629E+12,0.036987305,0.031738281,0.974609375,17.2846192,62.3954323,-1,,
1.52629E+12,0.04296875,0.017822266,1.048339844,17.2847707,62.3953957,-1,,
1.52629E+12,0.036254883,0.008544922,1.029663086,17.2847707,62.3953957,-1,,
1.52629E+12,0.039428711,0.090698242,1.050537109,17.2847707,62.3953957,-1,,
1.52629E+12,0.027954102,-0.027099609,1.053344727,17.2847707,62.3953957,-1,,
1.52629E+12,0.093994141,0.013916016,1.018432617,17.2847707,62.3953957,-1,,
1.52629E+12,0.053955078,0.060180664,1.07434082,17.2847707,62.3953957,-1,,
1.52629E+12,0.051757813,-0.026000977,0.984130859,17.2847707,62.3953957,-1,,
1.52629E+12,0.058837891,0.03918457,0.972045898,17.2847707,62.3953957,-1,,
1.52629E+12,0.110351563,-0.024780273,0.968017578,17.2849271,62.3953577,-1,,
1.52629E+12,0.106201172,-0.018066406,0.936279297,17.2849271,62.3953577,-1,,
1.52629E+12,0.065551758,0.060180664,0.972167969,17.2849271,62.3953577,-1,,
1.52629E+12,0.082397461,0.01159668,0.950195313,17.2849271,62.3953577,-1,,
1.52629E+12,0.047851563,-0.015258789,1.047363281,17.2849271,62.3953577,-1,,
1.52629E+12,0.060668945,0.033935547,1.041503906,17.2849271,62.3953577,-1,,
1.52629E+12,0.01940918,-0.005737305,1.025756836,17.2849271,62.3953577,-1,,
1.52629E+12,0.011962891,0.039306641,1.064086914,17.2849271,62.3953577,-1,,
1.52629E+12,0.029907227,0.006591797,1.096801758,17.2849271,62.3953577,-1,,
1.52629E+12,0.025878906,0.048217773,0.98840332,17.2849271,62.3953577,-1,,
1.52629E+12,0.05456543,-0.002319336,0.979248047,17.2850684,62.3953231,-1,,
1.52629E+12,0.064575195,0.017822266,1.029296875,17.2850684,62.3953231,-1,,
1.52629E+12,0.053955078,-0.016967773,0.981811523,17.2850684,62.3953231,-1,,
1.52629E+12,0.036865234,0.011474609,1.039550781,17.2850684,62.3953231,-1,,
1.52629E+12,0.051269531,0.003662109,1.001953125,17.2850684,62.3953231,-1,,
1.52629E+12,0.052856445,-0.024047852,0.984619141,17.2850684,62.3953231,-1,,
1.52629E+12,0.051513672,0.005859375,1.010620117,17.2852227,62.3952873,-1,,
1.52629E+12,0.056762695,0.026733398,0.996948242,17.2852227,62.3952873,-1,,
1.52629E+12,0.068481445,0.037963867,0.963134766,17.2852227,62.3952873,-1,,
1.52629E+12,0.057739258,-0.007324219,1.012695313,17.2852227,62.3952873,-1,,
1.52629E+12,0.051635742,0.022460938,1.009521484,17.2852227,62.3952873,-1,,
1.52629E+12,0.023681641,-0.001708984,1.063842773,17.2852227,62.3952873,-1,,
1.52629E+12,0.036865234,-0.034912109,0.989013672,17.2852227,62.3952873,-1,,
1.52629E+12,0.055664063,-0.006469727,0.959594727,17.2852227,62.3952873,-1,,
1.52629E+12,0.05078125,-0.005004883,0.959350586,17.2852227,62.3952873,-1,,
1.52629E+12,0.032104492,-0.018310547,1.0234375,17.2852227,62.3952873,-1,,
1.52629E+12,0.037475586,-0.01965332,1.025024414,17.2852227,62.3952873,-1,,
1.52629E+12,-0.008789063,-0.044189453,0.948486328,17.2852227,62.3952873,-1,,
1.52629E+12,0.007202148,0.027587891,1.095581055,17.2853895,62.3952538,-1,,
1.52629E+12,0.061279297,-0.020629883,0.982788086,17.2853895,62.3952538,-1,,
1.52629E+12,0.021972656,0.02746582,0.990722656,17.2853895,62.3952538,-1,,
1.52629E+12,0.029174805,0.049194336,0.992553711,17.2853895,62.3952538,-1,,
1.52629E+12,0.059936523,-0.000610352,0.964477539,17.2853895,62.3952538,-1,,
1.52629E+12,0.088867188,-0.014404297,0.965820313,17.2853895,62.3952538,-1,,
1.52629E+12,0.071411133,0.024536133,0.90246582,17.2853895,62.3952538,-1,,
1.52629E+12,0.055419922,0.026000977,1.009399414,17.2853895,62.3952538,-1,,
1.52629E+12,0.019897461,-0.014160156,1.012695313,17.2853895,62.3952538,-1,,
1.52629E+12,0.040527344,0.000244141,1.049194336,17.2853895,62.3952538,-1,,
1.52629E+12,0.05065918,0.031738281,0.965454102,17.2855419,62.3952111,-1,,
1.52629E+12,0.019165039,0.021118164,1.05456543,17.2855419,62.3952111,-1,,
1.52629E+12,-0.031860352,0.05871582,1.076293945,17.2855419,62.3952111,-1,,
1.52629E+12,0.004394531,0.007446289,0.959350586,17.2855419,62.3952111,-1,,
1.52629E+12,0.021240234,-0.015625,1.057617188,17.2855419,62.3952111,-1,,
1.52629E+12,0.037475586,0.041503906,1.016357422,17.2855419,62.3952111,-1,,
1.52629E+12,0.076660156,0.011352539,1.031494141,17.2855419,62.3952111,-1,,
1.52629E+12,0.045654297,0.031982422,0.979736328,17.2855419,62.3952111,-1,,
1.52629E+12,0.078857422,0.015136719,1.032226563,17.2855419,62.3952111,-1,,
1.52629E+12,0.067016602,0.015258789,1.033203125,17.2856969,62.3951787,-1,,
1.52629E+12,0.000732422,-0.003295898,1.06262207,17.2856969,62.3951787,-1,,
1.52629E+12,0.048583984,0.012939453,0.913696289,17.2856969,62.3951787,-1,,
1.52629E+12,-0.013671875,-0.067260742,1.061523438,17.2856969,62.3951787,-1,,
1.52629E+12,0.055175781,-0.005004883,0.976806641,17.2856969,62.3951787,-1,,
1.52629E+12,0.003662109,-0.043212891,1.042602539,17.2856969,62.3951787,-1,,
1.52629E+12,0.056884766,-0.048706055,0.924804688,17.2856969,62.3951787,-1,,
1.52629E+12,0.059692383,-0.059204102,1.011962891,17.2856969,62.3951787,-1,,
1.52629E+12,0.016357422,0.036987305,1.003173828,17.285859,62.3951484,-1,,
1.52629E+12,0.028564453,0.013549805,1.004882813,17.285859,62.3951484,-1,,
1.52629E+12,0.085693359,-0.002075195,0.96472168,17.285859,62.3951484,-1,,
1.52629E+12,0.068237305,0.025268555,0.982421875,17.285859,62.3951484,-1,,
1.52629E+12,0.032470703,-0.037963867,1.003417969,17.285859,62.3951484,-1,,
1.52629E+12,0.04296875,-0.026977539,0.989135742,17.285859,62.3951484,-1,,
1.52629E+12,-0.024780273,-0.024780273,1.002197266,17.285859,62.3951484,-1,,
1.52629E+12,0.043945313,0.014160156,1.011352539,17.285859,62.3951484,-1,,
1.52629E+12,0.11706543,0.000244141,1.0078125,17.285859,62.3951484,-1,,
1.52629E+12,0.082885742,-0.017456055,0.974487305,17.285859,62.3951484,-1,,
1.52629E+12,0.044433594,-0.020751953,0.960693359,17.286021,62.395125,-1,,
1.52629E+12,-0.029418945,-0.012695313,1.001831055,17.286021,62.395125,-1,,
1.52629E+12,-0.020141602,0.00378418,1.077148438,17.286021,62.395125,-1,,
1.52629E+12,0.007202148,-0.009277344,1.035400391,17.286021,62.395125,-1,,
1.52629E+12,0.032592773,-0.05090332,1.052490234,17.286021,62.395125,-1,,
1.52629E+12,0.066650391,0.003295898,0.98828125,17.286021,62.395125,-1,,
1.52629E+12,-0.00793457,0.012451172,1.030761719,17.286021,62.395125,-1,,
1.52629E+12,0.031738281,-0.022827148,0.979248047,17.286021,62.395125,-1,,
1.52629E+12,0.025878906,0.001464844,1.046386719,17.2861821,62.3951019,-1,,
1.52629E+12,0.057006836,-0.013305664,1.10546875,17.2861821,62.3951019,-1,,
1.52629E+12,0.010742188,-0.060302734,1.091308594,17.2861821,62.3951019,-1,,
1.52629E+12,0.005615234,0.03527832,1.07019043,17.2861821,62.3951019,-1,,
1.52629E+12,0.086425781,0.010986328,0.954956055,17.2861821,62.3951019,-1,,
1.52629E+12,0.029907227,-0.010742188,1.058105469,17.2861821,62.3951019,-1,,
1.52629E+12,0.030639648,0.003662109,0.962524414,17.2861821,62.3951019,-1,,
1.52629E+12,0.018798828,-0.031860352,0.947021484,17.2861821,62.3951019,-1,,
1.52629E+12,0.042114258,-0.001831055,1.035766602,17.2861821,62.3951019,-1,,
1.52629E+12,0.076049805,-0.00769043,0.991333008,17.2861821,62.3951019,-1,,
1.52629E+12,0.06628418,0.01171875,0.94921875,17.2863309,62.3950842,-1,,
1.52629E+12,0.076293945,0.029052734,0.940307617,17.2863309,62.3950842,-1,,
1.52629E+12,0.07434082,-0.018310547,0.959838867,17.2863309,62.3950842,-1,,
1.52629E+12,0.068359375,-0.035766602,0.970458984,17.2863309,62.3950842,-1,,
1.52629E+12,0.065063477,0.024658203,0.938232422,17.2863309,62.3950842,-1,,
1.52629E+12,0.102905273,-0.013061523,0.940185547,17.2863309,62.3950842,-1,,
1.52629E+12,0.045898438,0.034667969,0.967651367,17.2863309,62.3950842,-1,,
1.52629E+12,0.068237305,0.046142578,1.017456055,17.2863309,62.3950842,-1,,
1.52629E+12,0.020019531,-0.037841797,0.954833984,17.2863309,62.3950842,-1,,
1.52629E+12,0.0546875,-0.000244141,1.010742188,17.2864925,62.3950574,-1,,
1.52629E+12,0.03503418,0.006835938,0.947021484,17.2864925,62.3950574,-1,,
1.52629E+12,0.054321289,-0.020874023,1.000244141,17.2864925,62.3950574,-1,,
1.52629E+12,0.02734375,-0.015380859,1.040283203,17.2864925,62.3950574,-1,,
1.52629E+12,0.014770508,0.023925781,1.038085938,17.2864925,62.3950574,-1,,
1.52629E+12,-0.024658203,0.023193359,1.054077148,17.2864925,62.3950574,-1,,
1.52629E+12,0.003051758,-0.018188477,1.038330078,17.2864925,62.3950574,-1,,
1.52629E+12,-0.015869141,0.035644531,1.072875977,17.2866586,62.3950294,-1,,
1.52629E+12,0.05456543,0.012451172,1.026367188,17.2866586,62.3950294,-1,,
1.52629E+12,0.040649414,0.012939453,0.995117188,17.2866586,62.3950294,-1,,
1.52629E+12,0.009765625,0.01574707,0.982666016,17.2866586,62.3950294,-1,,
1.52629E+12,0.049072266,-0.010986328,0.978393555,17.2866586,62.3950294,-1,,
1.52629E+12,0.016235352,-0.013671875,0.981079102,17.2866586,62.3950294,-1,,
1.52629E+12,0.059082031,-0.013793945,0.993164063,17.2866586,62.3950294,-1,,
1.52629E+12,0.011962891,-0.001220703,0.990356445,17.2866586,62.3950294,-1,,
1.52629E+12,0.037109375,0.0234375,1.01953125,17.2866586,62.3950294,-1,,
1.52629E+12,-0.000244141,0.026611328,1.017089844,17.2866586,62.3950294,-1,,
1.52629E+12,0.071655273,0.03503418,0.965698242,17.2866586,62.3950294,-1,,
1.52629E+12,0.086181641,-0.025268555,0.918212891,17.286824,62.3950012,-1,,
1.52629E+12,0.020629883,0.033935547,1.012451172,17.286824,62.3950012,-1,,
1.52629E+12,0.041259766,-0.019897461,0.966064453,17.286824,62.3950012,-1,,
1.52629E+12,-0.022460938,-0.001586914,1.02746582,17.286824,62.3950012,-1,,
1.52629E+12,0.019042969,0.018920898,1.06628418,17.286824,62.3950012,-1,,
1.52629E+12,0.041137695,0.013916016,1.022949219,17.286824,62.3950012,-1,,
1.52629E+12,0.01574707,0.061767578,0.954223633,17.286824,62.3950012,-1,,
1.52629E+12,0.055419922,0.015136719,1.002563477,17.286824,62.3950012,-1,,
1.52629E+12,0.028076172,0.041381836,1.047363281,17.286824,62.3950012,-1,,
1.52629E+12,0.036010742,-0.016235352,0.979492188,17.286824,62.3950012,-1,,
1.52629E+12,0.067871094,0.024780273,1.043212891,17.286824,62.3950012,-1,,
1.52629E+12,0.090209961,0.015869141,0.970703125,17.2869906,62.3949817,-1,,
1.52629E+12,0.036499023,-0.012329102,0.973510742,17.2869906,62.3949817,-1,,
1.52629E+12,0.057128906,0.020019531,1.022827148,17.2869906,62.3949817,-1,,
1.52629E+12,0.088012695,-0.010009766,1.006469727,17.2869906,62.3949817,-1,,
1.52629E+12,0.07434082,-0.032958984,0.94140625,17.2869906,62.3949817,-1,,
1.52629E+12,0.052368164,0.012695313,1.060913086,17.2869906,62.3949817,-1,,
1.52629E+12,0.056152344,-0.030639648,1.032836914,17.2869906,62.3949817,-1,,
1.52629E+12,0.019775391,0.023071289,1.048461914,17.2869906,62.3949817,-1,,
1.52629E+12,0.013183594,-0.004272461,1.013793945,17.2871459,62.3949644,-1,,
1.52629E+12,0.010009766,0.040405273,1.03112793,17.2871459,62.3949644,-1,,
1.52629E+12,0.064575195,0.005126953,1.065673828,17.2871459,62.3949644,-1,,
1.52629E+12,0.033447266,-0.021606445,1.006469727,17.2871459,62.3949644,-1,,
1.52629E+12,0.052124023,-0.031860352,0.97668457,17.2871459,62.3949644,-1,,
1.52629E+12,0.036132813,-0.012207031,1.005981445,17.2871459,62.3949644,-1,,
1.52629E+12,0.077026367,0.013427734,1.044433594,17.2871459,62.3949644,-1,,
1.52629E+12,0.013305664,-0.013427734,0.966796875,17.2871459,62.3949644,-1,,
1.52629E+12,0.017333984,-0.006958008,1.012573242,17.2871459,62.3949644,-1,,
1.52629E+12,-0.012573242,0.062744141,1.031616211,17.2872995,62.3949383,-1,,
1.52629E+12,0.01953125,0.002441406,0.950683594,17.2872995,62.3949383,-1,,
1.52629E+12,0.04284668,-0.009399414,1.009277344,17.2872995,62.3949383,-1,,
1.52629E+12,0.019287109,0.033081055,1.001220703,17.2872995,62.3949383,-1,,
1.52629E+12,0.020263672,-0.012939453,0.997192383,17.2872995,62.3949383,-1,,
1.52629E+12,0.018432617,-0.011352539,0.961669922,17.2872995,62.3949383,-1,,
1.52629E+12,0.077026367,0.013916016,1.002807617,17.2872995,62.3949383,-1,,
1.52629E+12,0.014160156,-0.013793945,1.032104492,17.2872995,62.3949383,-1,,
1.52629E+12,0.013061523,-0.014770508,0.974853516,17.2872995,62.3949383,-1,,
1.52629E+12,0.068359375,-0.022460938,0.962036133,17.2872995,62.3949383,-1,,
1.52629E+12,0.043334961,-0.024169922,0.938354492,17.2872995,62.3949383,-1,,
1.52629E+12,0.046875,-0.010864258,1.006103516,17.2874555,62.3949219,-1,,
1.52629E+12,0.076904297,-0.005004883,0.982788086,17.2874555,62.3949219,-1,,
1.52629E+12,0.026489258,-0.033813477,0.93347168,17.2874555,62.3949219,-1,,
1.52629E+12,0.043457031,-0.015136719,0.997802734,17.2874555,62.3949219,-1,,
1.52629E+12,0.052490234,0.021362305,1.045776367,17.2874555,62.3949219,-1,,
1.52629E+12,0.003173828,0.005981445,1.064575195,17.2876235,62.3949017,-1,,
1.52629E+12,0.038452148,-0.015014648,1.002319336,17.2876235,62.3949017,-1,,
1.52629E+12,-0.013427734,0.015380859,0.996826172,17.2876235,62.3949017,-1,,
1.52629E+12,0.046264648,0.017456055,1.084960938,17.2876235,62.3949017,-1,,
1.52629E+12,0.046264648,0.015380859,0.937866211,17.2876235,62.3949017,-1,,
1.52629E+12,0.104248047,-0.011352539,0.968994141,17.2876235,62.3949017,-1,,
1.52629E+12,0.037597656,-0.042724609,1.036621094,17.2876235,62.3949017,-1,,
1.52629E+12,0.065795898,0.019897461,0.975097656,17.2876235,62.3949017,-1,,
1.52629E+12,0.064331055,0.041259766,0.992675781,17.2876235,62.3949017,-1,,
1.52629E+12,0.042724609,-0.012329102,1.044799805,17.2876235,62.3949017,-1,,
1.52629E+12,0.02734375,0.035888672,0.999267578,17.2876235,62.3949017,-1,,
1.52629E+12,0.059082031,-0.006835938,0.985717773,17.2877763,62.3948868,-1,,
1.52629E+12,-0.000610352,0.007080078,0.975830078,17.2877763,62.3948868,-1,,
1.52629E+12,0.041381836,0.026733398,0.986572266,17.2877763,62.3948868,-1,,
1.52629E+12,0.026367188,0.031982422,1.032348633,17.2877763,62.3948868,-1,,
1.52629E+12,0.077758789,0.055175781,0.973754883,17.2877763,62.3948868,-1,,
1.52629E+12,0.054199219,0.045166016,1.026000977,17.2877763,62.3948868,-1,,
1.52629E+12,0.044677734,-0.008911133,0.948730469,17.2877763,62.3948868,-1,,
1.52629E+12,0.031616211,0.058227539,1.017456055,17.2877763,62.3948868,-1,,
1.52629E+12,0.074951172,0.014648438,0.990478516,17.2877763,62.3948868,-1,,
1.52629E+12,0.055053711,0.036254883,1.039428711,17.2877763,62.3948868,-1,,
1.52629E+12,0.079223633,0,0.980712891,17.2877763,62.3948868,-1,,
1.52629E+12,0.058227539,-0.005493164,1.022460938,17.2879266,62.3948692,-1,,
1.52629E+12,0.032958984,0.00378418,0.998901367,17.2879266,62.3948692,-1,,
1.52629E+12,0.053710938,0.023681641,0.902709961,17.2879266,62.3948692,-1,,
1.52629E+12,0.028808594,0.016479492,1.048706055,17.2879266,62.3948692,-1,,
1.52629E+12,0.061157227,0.002563477,1.003417969,17.2879266,62.3948692,-1,,
1.52629E+12,0.036621094,0.005859375,1.032714844,17.2879266,62.3948692,-1,,
1.52629E+12,0.077026367,0.015258789,1.024536133,17.2879266,62.3948692,-1,,
1.52629E+12,0.05065918,0.002685547,0.962036133,17.2879266,62.3948692,-1,,
1.52629E+12,0.047241211,0.032226563,1.035766602,17.2879266,62.3948692,-1,,
1.52629E+12,0.063964844,-0.071777344,0.936035156,17.2880688,62.394854,-1,,
1.52629E+12,-0.0390625,0.012329102,1.041992188,17.2880688,62.394854,-1,,
1.52629E+12,0.055541992,-0.016845703,1.015136719,17.2880688,62.394854,-1,,
1.52629E+12,0.006469727,-0.015869141,1.001586914,17.2880688,62.394854,-1,,
1.52629E+12,0.018676758,0.035522461,1.018798828,17.2880688,62.394854,-1,,
1.52629E+12,0.004150391,0.026489258,1.022338867,17.2880688,62.394854,-1,,
1.52629E+12,-0.018554688,0.038452148,1.046508789,17.2880688,62.394854,-1,,
1.52629E+12,0.086791992,-0.028686523,0.979614258,17.2880688,62.394854,-1,,
1.52629E+12,0.034912109,0.009277344,0.990112305,17.2882031,62.3948375,-1,,
1.52629E+12,0.043334961,-0.033081055,1.028198242,17.2882031,62.3948375,-1,,
1.52629E+12,0.026367188,0.029663086,1.006591797,17.2882031,62.3948375,-1,,
1.52629E+12,0.037963867,-0.044433594,1.037597656,17.2882031,62.3948375,-1,,
1.52629E+12,-0.022216797,0.022338867,1.024780273,17.2882031,62.3948375,-1,,
1.52629E+12,0.014160156,-0.040649414,0.96887207,17.2882031,62.3948375,-1,,
1.52629E+12,0.098022461,-0.01550293,0.969482422,17.2882031,62.3948375,-1,,
1.52629E+12,0.011474609,0.018676758,1.016113281,17.2882031,62.3948375,-1,,
1.52629E+12,0.089477539,0.021728516,1.022460938,17.2882031,62.3948375,-1,,
1.52629E+12,0.005493164,-0.021972656,1.001220703,17.2883457,62.39482,-1,,
1.52629E+12,0.010131836,0.025756836,1.005126953,17.2883457,62.39482,-1,,
1.52629E+12,0.047729492,-0.051879883,1.041625977,17.2883457,62.39482,-1,,
1.52629E+12,0.064208984,0.021606445,1.020141602,17.2883457,62.39482,-1,,
1.52629E+12,0.034179688,-0.036376953,0.980712891,17.2883457,62.39482,-1,,
1.52629E+12,0.002075195,0.034667969,1.055908203,17.2883457,62.39482,-1,,
1.52629E+12,-0.00012207,0.001708984,1.031982422,17.2883457,62.39482,-1,,
1.52629E+12,0.026245117,-0.001586914,1.074951172,17.2884733,62.3948034,-1,,
1.52629E+12,-0.012695313,-0.014526367,1.030029297,17.2884733,62.3948034,-1,,
1.52629E+12,0.023803711,-0.008178711,0.9765625,17.2884733,62.3948034,-1,,
1.52629E+12,0.020629883,0.013549805,0.987670898,17.2884733,62.3948034,-1,,
1.52629E+12,-0.024414063,0.005493164,1.077148438,17.2884733,62.3948034,-1,,
1.52629E+12,-0.026000977,0.032836914,0.994140625,17.2884733,62.3948034,-1,,
1.52629E+12,-0.009643555,-0.013916016,1.081665039,17.2884733,62.3948034,-1,,
1.52629E+12,0.011108398,-0.060913086,1.021484375,17.2884733,62.3948034,-1,,
1.52629E+12,0.016357422,-0.0234375,0.997070313,17.2884733,62.3948034,-1,,
1.52629E+12,-0.014648438,-0.021728516,1.020385742,17.2884733,62.3948034,-1,,
1.52629E+12,0.021850586,-0.026489258,0.9921875,17.2884733,62.3948034,-1,,
1.52629E+12,-0.005981445,-0.046020508,1.005859375,17.2886123,62.394786,-1,,
1.52629E+12,0.021728516,-0.03894043,0.99987793,17.2886123,62.394786,-1,,
1.52629E+12,0.009033203,0.001708984,1.045043945,17.2886123,62.394786,-1,,
1.52629E+12,-0.024047852,-0.018798828,1.020263672,17.2886123,62.394786,-1,,
1.52629E+12,0.000488281,-0.049560547,0.954467773,17.2886123,62.394786,-1,,
1.52629E+12,-0.016235352,0.017700195,1.053710938,17.2886123,62.394786,-1,,
1.52629E+12,-0.000244141,-0.016723633,0.952270508,17.2886123,62.394786,-1,,
1.52629E+12,0.005859375,-0.02746582,0.982177734,17.2886123,62.394786,-1,,
1.52629E+12,-0.028808594,0.003540039,1.030517578,17.2886123,62.394786,-1,,
1.52629E+12,-0.006225586,-0.016357422,1.017089844,17.2886123,62.394786,-1,,
1.52629E+12,0.076049805,-0.041870117,0.902954102,17.2886123,62.394786,-1,,
1.52629E+12,0.032836914,-0.018188477,0.998291016,17.2887576,62.3947706,-1,,
1.52629E+12,0.020751953,0.012207031,0.995117188,17.2887576,62.3947706,-1,,
1.52629E+12,0.032592773,0.009521484,0.944946289,17.2887576,62.3947706,-1,,
1.52629E+12,0.028930664,0.02355957,0.992553711,17.2887576,62.3947706,-1,,
1.52629E+12,0.000732422,0.017089844,1.035644531,17.2887576,62.3947706,-1,,
1.52629E+12,0.043579102,0.014648438,1.005859375,17.2887576,62.3947706,-1,,
1.52629E+12,0.008300781,-0.010009766,0.982421875,17.2889098,62.3947532,-1,,
1.52629E+12,0.004272461,-0.015014648,1.034545898,17.2889098,62.3947532,-1,,
1.52629E+12,-0.02331543,0.013427734,0.997924805,17.2889098,62.3947532,-1,,
1.52629E+12,0.009643555,0.016357422,1.044067383,17.2889098,62.3947532,-1,,
1.52629E+12,-0.018188477,-0.01965332,1.027954102,17.2889098,62.3947532,-1,,
1.52629E+12,0.037353516,-0.003295898,1.005981445,17.2889098,62.3947532,-1,,
1.52629E+12,-0.035400391,-0.000366211,1.016967773,17.2889098,62.3947532,-1,,
1.52629E+12,-0.017211914,-0.002319336,1.090087891,17.2889098,62.3947532,-1,,
1.52629E+12,-0.044189453,0.016113281,1.055541992,17.2889098,62.3947532,-1,,
1.52629E+12,-0.046875,0.00390625,1.05065918,17.2889098,62.3947532,-1,,
1.52629E+12,-0.002319336,0.004516602,1.037963867,17.2889098,62.3947532,-1,,
1.52629E+12,-0.022460938,-0.01184082,1.034545898,17.2889098,62.3947532,-1,,
1.52629E+12,0.000732422,0.005615234,0.988647461,17.2890593,62.3947362,-1,,
1.52629E+12,-0.005859375,-0.023803711,0.975463867,17.2890593,62.3947362,-1,,
1.52629E+12,-0.009643555,0.042358398,1.03894043,17.2890593,62.3947362,-1,,
1.52629E+12,-0.018310547,-0.026733398,1.003662109,17.2890593,62.3947362,-1,,
1.52629E+12,-0.027587891,0.023925781,1.032470703,17.2890593,62.3947362,-1,,
1.52629E+12,-0.022705078,-0.024169922,1.03125,17.2890593,62.3947362,-1,,
1.52629E+12,-0.008300781,0.00793457,1.028320313,17.2890593,62.3947362,-1,,
1.52629E+12,0.005981445,-0.049560547,0.938964844,17.2890593,62.3947362,-1,,
1.52629E+12,-0.000976563,0.031738281,1.001220703,17.2890593,62.3947362,-1,,
1.52629E+12,0.009643555,-0.02746582,0.994506836,17.2892101,62.3947209,-1,,
1.52629E+12,-0.014404297,0.001098633,0.987915039,17.2892101,62.3947209,-1,,
1.52629E+12,-0.034179688,-0.029785156,0.977661133,17.2892101,62.3947209,-1,,
1.52629E+12,-0.010375977,0.008056641,0.958007813,17.2892101,62.3947209,-1,,
1.52629E+12,-0.018432617,-0.002929688,0.980102539,17.2892101,62.3947209,-1,,
1.52629E+12,-0.024291992,-0.092285156,0.985107422,17.2892101,62.3947209,-1,,
1.52629E+12,-0.030517578,0.008422852,1.009033203,17.2892101,62.3947209,-1,,
1.52629E+12,0.042480469,-0.009643555,1.005981445,17.2893552,62.3947051,-1,,
1.52629E+12,0.052124023,-0.021484375,0.999511719,17.2893552,62.3947051,-1,,
1.52629E+12,0.024658203,-0.016479492,0.932373047,17.2893552,62.3947051,-1,,
1.52629E+12,0.0078125,-0.035888672,1.027832031,17.2893552,62.3947051,-1,,
1.52629E+12,0.001342773,0.010009766,1.005737305,17.2893552,62.3947051,-1,,
1.52629E+12,0.01940918,-0.019287109,1.027099609,17.2893552,62.3947051,-1,,
1.52629E+12,0.003295898,-0.009765625,1.025024414,17.2893552,62.3947051,-1,,
1.52629E+12,0.018554688,0.027587891,1.036621094,17.2893552,62.3947051,-1,,
1.52629E+12,0.018310547,-0.051391602,0.95690918,17.2893552,62.3947051,-1,,
1.52629E+12,0.026489258,0.033935547,1.009765625,17.2893552,62.3947051,-1,,
1.52629E+12,-0.027587891,0.045288086,0.990478516,17.2893552,62.3947051,-1,,
1.52629E+12,-0.021606445,0.065551758,1.053222656,17.28951,62.3946885,-1,,
1.52629E+12,0.024780273,0.030273438,0.98840332,17.28951,62.3946885,-1,,
1.52629E+12,0.079956055,-0.036987305,0.979370117,17.28951,62.3946885,-1,,
1.52629E+12,0.015991211,0.004272461,0.979614258,17.28951,62.3946885,-1,,
1.52629E+12,0.051391602,0.055908203,1.008178711,17.28951,62.3946885,-1,,
1.52629E+12,-0.013061523,0.031982422,1.01940918,17.28951,62.3946885,-1,,
1.52629E+12,-0.020629883,-0.019042969,1.020507813,17.28951,62.3946885,-1,,
1.52629E+12,-0.084960938,0.057128906,1.081054688,17.28951,62.3946885,-1,,
1.52629E+12,0.010253906,0.05456543,0.998413086,17.28951,62.3946885,-1,,
1.52629E+12,-0.0078125,0.031738281,0.991577148,17.2896629,62.3946722,-1,,
1.52629E+12,0.038452148,-0.011230469,0.951049805,17.2896629,62.3946722,-1,,
1.52629E+12,-0.028320313,0.036132813,1.003417969,17.2896629,62.3946722,-1,,
1.52629E+12,0.006835938,0.020874023,1.054321289,17.2896629,62.3946722,-1,,
1.52629E+12,0.041503906,-0.005493164,0.969726563,17.2896629,62.3946722,-1,,
1.52629E+12,-0.000366211,-0.025512695,0.993041992,17.2896629,62.3946722,-1,,
1.52629E+12,0.060302734,0.003051758,0.940185547,17.2896629,62.3946722,-1,,
1.52629E+12,-0.04699707,0.036987305,1.051879883,17.2896629,62.3946722,-1,,
1.52629E+12,-0.054077148,0.040039063,1.096801758,17.289816,62.3946602,-1,,
1.52629E+12,-0.001831055,0.006225586,1.013061523,17.289816,62.3946602,-1,,
1.52629E+12,-0.019897461,-0.00769043,1.049804688,17.289816,62.3946602,-1,,
1.52629E+12,-0.002929688,-0.005249023,0.974975586,17.289816,62.3946602,-1,,
1.52629E+12,0.013793945,0.006347656,1.018310547,17.289816,62.3946602,-1,,
1.52629E+12,0.10949707,-0.007080078,0.908691406,17.289816,62.3946602,-1,,
1.52629E+12,0.002075195,0.011474609,1.004638672,17.289816,62.3946602,-1,,
1.52629E+12,0.016479492,-0.00769043,1.018066406,17.289816,62.3946602,-1,,
1.52629E+12,0.030761719,0.007324219,0.964233398,17.289816,62.3946602,-1,,
1.52629E+12,-0.005615234,0.051879883,1.024047852,17.289816,62.3946602,-1,,
1.52629E+12,0.004394531,0.100097656,1.103271484,17.289816,62.3946602,-1,,
1.52629E+12,0.077880859,0.074707031,0.935913086,17.289816,62.3946602,-1,,
1.52629E+12,0.090942383,0.088256836,0.982421875,17.289816,62.3946602,-1,,
1.52629E+12,0.043945313,0.051879883,0.997192383,17.289816,62.3946602,-1,,
1.52629E+12,0.03503418,0.092285156,1.030151367,17.289816,62.3946602,-1,,
1.52629E+12,0.014526367,0.064941406,0.965209961,17.2899406,62.394652,-1,,
1.52629E+12,-0.002197266,0.094238281,0.970947266,17.2899406,62.394652,-1,,
1.52629E+12,-0.03503418,0.096679688,1.098144531,17.2900781,62.3946439,-1,,
1.52629E+12,-0.002929688,0.070922852,1.031005859,17.2900781,62.3946439,-1,,
1.52629E+12,-0.039428711,0.119018555,1.063476563,17.2900781,62.3946439,-1,,
1.52629E+12,0.059692383,0.133544922,1.0078125,17.2900781,62.3946439,-1,,
1.52629E+12,0.046508789,0.066772461,0.970947266,17.2900781,62.3946439,-1,,
1.52629E+12,0.027954102,0.097167969,1.062133789,17.2900781,62.3946439,-1,,
1.52629E+12,0.016357422,0.083251953,0.991699219,17.2900781,62.3946439,-1,,
1.52629E+12,-0.01574707,0.101928711,0.997680664,17.2900781,62.3946439,-1,,
1.52629E+12,-0.003662109,0.124145508,0.988037109,17.2900781,62.3946439,-1,,
1.52629E+12,0.03112793,0.119995117,0.98815918,17.2900781,62.3946439,-1,,
1.52629E+12,0.012207031,0.164550781,1.023925781,17.2900781,62.3946439,-1,,
1.52629E+12,0.024780273,0.182983398,0.993041992,17.2901951,62.3946363,-1,,
1.52629E+12,0.034301758,0.169799805,1.001831055,17.2901951,62.3946363,-1,,
1.52629E+12,0.020751953,0.154296875,0.983154297,17.2901951,62.3946363,-1,,
1.52629E+12,-0.009643555,0.194946289,1.058227539,17.2901951,62.3946363,-1,,
1.52629E+12,0.054077148,0.181884766,0.968017578,17.2901951,62.3946363,-1,,
1.52629E+12,-0.043823242,0.192016602,1.061035156,17.2901951,62.3946363,-1,,
1.52629E+12,0.016113281,0.230834961,1.012817383,17.2901951,62.3946363,-1,,
1.52629E+12,0.003295898,0.222900391,0.965698242,17.2901951,62.3946363,-1,,
1.52629E+12,0.017944336,0.200805664,0.96887207,17.2901951,62.3946363,-1,,
1.52629E+12,0.018920898,0.196655273,1.012695313,17.2901951,62.3946363,-1,,
1.52629E+12,0.062866211,0.188232422,1.016723633,17.290286,62.3946277,-1,,
1.52629E+12,-0.027587891,0.203613281,1.037719727,17.290286,62.3946277,-1,,
1.52629E+12,0.036254883,0.18347168,0.99230957,17.290286,62.3946277,-1,,
1.52629E+12,0.031005859,0.231079102,0.9765625,17.290286,62.3946277,-1,,
1.52629E+12,0.022949219,0.199951172,1.001464844,17.290286,62.3946277,-1,,
1.52629E+12,0.012329102,0.200561523,1.007568359,17.290286,62.3946277,-1,,
1.52629E+12,0.024780273,0.210083008,1.020996094,17.290286,62.3946277,-1,,
1.52629E+12,0.021728516,0.232543945,1.008911133,17.290286,62.3946277,-1,,
1.52629E+12,0.019287109,0.221679688,0.989990234,17.290286,62.3946277,-1,,
1.52629E+12,0.004516602,0.234130859,0.998291016,17.290286,62.3946277,-1,,
1.52629E+12,-0.00012207,0.227172852,1.001953125,17.290286,62.3946277,-1,,
1.52629E+12,0.014526367,0.20715332,1.009277344,17.2903145,62.3946252,-1,,
1.52629E+12,0.004516602,0.189331055,1.003295898,17.2903145,62.3946252,-1,,
1.52629E+12,0.001342773,0.175048828,1.01574707,17.2903145,62.3946252,-1,,
1.52629E+12,0.009521484,0.168579102,1.007202148,17.2903145,62.3946252,-1,,
1.52629E+12,0.022338867,0.170288086,0.995239258,17.2903145,62.3946252,-1,,
1.52629E+12,0.013427734,0.170410156,1.001831055,17.2903145,62.3946252,-1,,
1.52629E+12,0.015136719,0.157470703,0.987426758,17.2903341,62.394622,-1,,
1.52629E+12,0.020385742,-0.016723633,1.026367188,17.2903341,62.394622,-1,,
1.52629E+12,0.006103516,-0.023925781,0.997802734,17.2903341,62.394622,-1,,
1.52629E+12,0.008422852,0.019042969,0.983276367,17.2903341,62.394622,-1,,
1.52629E+12,0.019897461,-0.008544922,0.991821289,17.2903341,62.394622,-1,,
1.52629E+12,0.012573242,-0.006835938,1.017700195,17.2903341,62.394622,-1,,
1.52629E+12,0.014160156,0.004150391,1.000854492,17.2903341,62.394622,-1,,
1.52629E+12,0.079223633,0.151855469,0.928344727,17.2903341,62.394622,-1,,
1.52629E+12,0.061035156,-0.036376953,0.947875977,17.2903341,62.394622,-1,,
1.52629E+12,-0.009033203,0.007568359,1.009643555,17.2903341,62.394622,-1,,
1.52629E+12,0.019775391,0.000610352,0.983154297,17.2903341,62.394622,-1,,
1.52629E+12,0.020751953,-0.007080078,0.996704102,17.2903439,62.3946186,-1,,
1.52629E+12,0.014282227,-0.008666992,0.991943359,17.2903439,62.3946186,-1,,
1.52629E+12,0.012084961,-0.005859375,0.991333008,17.2903439,62.3946186,-1,,
1.52629E+12,0.016357422,-0.003662109,1.002929688,17.2903439,62.3946186,-1,,
1.52629E+12,0.010620117,-0.001953125,1.011474609,17.2903439,62.3946186,-1,,
1.52629E+12,0.016113281,-0.003295898,0.996826172,17.2903439,62.3946186,-1,,
1.52629E+12,0.013061523,-0.027709961,1.099243164,17.2903439,62.3946186,-1,,
1.52629E+12,0.01953125,-0.003540039,0.967163086,17.2903439,62.3946186,-1,,
1.52629E+12,0.025634766,-0.012817383,1.002929688,17.2903439,62.3946186,-1,,
1.52629E+12,-0.339233398,0.075439453,1.280029297,17.2903461,62.3946185,-1,,
1.52629E+12,0.039794922,-0.036987305,0.968505859,17.2903461,62.3946185,-1,,
1.52629E+12,-0.00012207,0.002197266,0.994262695,17.2903461,62.3946185,-1,,
1.52629E+12,0.016235352,0.010742188,0.99597168,17.2903461,62.3946185,-1,,
1.52629E+12,0.007080078,0.030029297,1.029174805,17.2903461,62.3946185,-1,,
1.52629E+12,0.010009766,-0.16394043,1.03503418,17.2903461,62.3946185,-1,,
1.52629E+12,0.073120117,-0.122558594,0.940917969,17.2903461,62.3946185,-1,,
1.52629E+12,-0.031494141,-0.158935547,0.959472656,17.2903461,62.3946185,-1,,
1.52629E+12,0.036865234,-0.297973633,1.022583008,17.2903487,62.3946191,-1,,
1.52629E+12,0.006103516,-0.247314453,1.048950195,17.2903487,62.3946191,-1,,
1.52629E+12,0.027832031,-0.251098633,0.972167969,17.2903487,62.3946191,-1,,
1.52629E+12,-0.025756836,-0.276000977,0.991943359,17.2903487,62.3946191,-1,,
1.52629E+12,-0.003295898,-0.262817383,0.952392578,17.2903487,62.3946191,-1,,
1.52629E+12,-0.035888672,-0.267944336,0.982421875,17.2903487,62.3946191,-1,,
1.52629E+12,0.005981445,-0.19140625,1.103515625,17.2903487,62.3946191,-1,,
1.52629E+12,-0.002197266,-0.231811523,1.002929688,17.2903487,62.3946191,-1,,
1.52629E+12,0.036743164,-0.170288086,1.091430664,17.2903487,62.3946191,-1,,
1.52629E+12,0.024169922,-0.231445313,1.030761719,17.2903487,62.3946191,-1,,
1.52629E+12,0.064331055,-0.207885742,0.904785156,17.2903487,62.3946191,-1,,
1.52629E+12,-0.004150391,-0.234863281,0.93347168,17.290361,62.3946178,-1,,
1.52629E+12,-0.016479492,-0.224731445,1.012939453,17.290361,62.3946178,-1,,
1.52629E+12,-0.001586914,-0.150024414,1.019775391,17.290361,62.3946178,17.29042625427246,,
1.52629E+12,0.018066406,-0.153930664,1.021728516,17.290361,62.3946178,17.29042625427246,,
1.52629E+12,0.016601563,-0.163330078,0.98828125,17.290361,62.3946178,17.29042625427246,,
1.52629E+12,0.018310547,-0.254272461,1.034912109,17.290361,62.3946178,17.29042625427246,,
1.52629E+12,-0.038696289,-0.131591797,0.998168945,17.290399,62.3946131,17.29042625427246,,
1.52629E+12,0.044067383,-0.188232422,0.998168945,17.290399,62.3946131,17.29042625427246,,
1.52629E+12,-0.004760742,-0.189208984,0.94909668,17.290399,62.3946131,17.29042625427246,,
1.52629E+12,0.045654297,-0.201049805,1.01550293,17.290399,62.3946131,17.29042625427246,,
1.52629E+12,0.027587891,-0.15222168,1.071777344,17.290399,62.3946131,17.29042625427246,,
1.52629E+12,0.027954102,-0.176513672,1.062988281,17.290399,62.3946131,17.29042625427246,,
1.52629E+12,0.042724609,-0.092407227,1.038818359,17.290399,62.3946131,17.29042625427246,,
1.52629E+12,0.032592773,-0.020629883,1.010986328,17.290399,62.3946131,17.29042625427246,,
1.52629E+12,0.000854492,-0.041381836,0.919189453,17.290399,62.3946131,17.29042625427246,,
1.52629E+12,-0.005859375,0.001708984,0.922729492,17.290399,62.3946131,17.29042625427246,,
1.52629E+12,0.005004883,0.010986328,0.963500977,17.2905696,62.3945976,17.29042625427246,,
1.52629E+12,-0.001586914,-0.037353516,1.014404297,17.2905696,62.3945976,17.29042625427246,,
1.52629E+12,0.03503418,-0.114746094,0.953369141,17.2905696,62.3945976,17.29042625427246,,
1.52629E+12,0.012817383,-0.104614258,1.04284668,17.2905696,62.3945976,17.290447235107422,,
1.52629E+12,0.010498047,-0.080688477,1.028442383,17.2905696,62.3945976,17.290447235107422,,
1.52629E+12,-0.015258789,-0.059692383,1.012817383,17.2905696,62.3945976,17.290447235107422,,
1.52629E+12,-0.007446289,-0.059814453,1.016357422,17.2905696,62.3945976,17.290447235107422,,
1.52629E+12,0.021362305,-0.126342773,0.981567383,17.2905696,62.3945976,17.290447235107422,,
1.52629E+12,0.033569336,-0.047485352,0.987548828,17.2905696,62.3945976,17.290447235107422,,
1.52629E+12,0.022338867,-0.128173828,1.028320313,17.2905696,62.3945976,17.290447235107422,,
1.52629E+12,-0.005615234,-0.063842773,0.967651367,17.2906805,62.3945827,17.290447235107422,,
1.52629E+12,0.007324219,-0.05847168,0.990478516,17.2906805,62.3945827,17.290447235107422,,
1.52629E+12,0.015258789,-0.073242188,0.993041992,17.2906805,62.3945827,17.290447235107422,,
1.52629E+12,-0.045288086,-0.059448242,0.992431641,17.2906805,62.3945827,17.29054832458496,,
1.52629E+12,0.012695313,-0.015258789,0.991821289,17.2906805,62.3945827,17.29054832458496,,
1.52629E+12,-0.039672852,-0.052001953,1.010986328,17.2906805,62.3945827,17.29054832458496,,
1.52629E+12,0.020629883,-0.076049805,0.989990234,17.2906805,62.3945827,17.29054832458496,,
1.52629E+12,0.037597656,-0.054443359,0.987670898,17.2906805,62.3945827,17.29054832458496,,
1.52629E+12,-0.024291992,-0.067504883,1.013793945,17.2906805,62.3945827,17.29054832458496,,
1.52629E+12,-0.017456055,-0.029174805,1.017333984,17.2906805,62.3945827,17.29054832458496,,
1.52629E+12,0.016967773,-0.037353516,1.021850586,17.2906805,62.3945827,17.29054832458496,,
1.52629E+12,0.018310547,-0.030517578,0.983642578,17.2907997,62.3945672,17.29054832458496,,
1.52629E+12,0.021484375,-0.045776367,0.991210938,17.2907997,62.3945672,17.29066276550293,,
1.52629E+12,-0.003540039,-0.044677734,1.008789063,17.2907997,62.3945672,17.29066276550293,,
1.52629E+12,-0.044433594,-0.060668945,1.039672852,17.2907997,62.3945672,17.29066276550293,,
1.52629E+12,0.00012207,-0.05871582,0.977416992,17.2907997,62.3945672,17.29066276550293,,
1.52629E+12,-0.012573242,-0.063476563,1.000610352,17.2907997,62.3945672,17.29066276550293,,
1.52629E+12,0.010620117,-0.04284668,0.964233398,17.2907997,62.3945672,17.29066276550293,,
1.52629E+12,-0.021118164,-0.033447266,1.040527344,17.2909252,62.39456,17.29066276550293,,
1.52629E+12,0.004150391,-0.03503418,1.034301758,17.2909252,62.39456,17.29066276550293,,
1.52629E+12,-0.01184082,-0.009277344,1.005126953,17.2909252,62.39456,17.29066276550293,,
1.52629E+12,0.009033203,-0.015014648,0.926635742,17.2909252,62.39456,17.290782928466797,,
1.52629E+12,0.008422852,-0.042602539,1.002563477,17.2909252,62.39456,17.290782928466797,,
1.52629E+12,0.036621094,-0.011230469,0.98059082,17.2909252,62.39456,17.290782928466797,,
1.52629E+12,0.011108398,-0.029296875,0.965454102,17.2909252,62.39456,17.290782928466797,,
1.52629E+12,0.015380859,-0.000976563,0.98449707,17.2909252,62.39456,17.290782928466797,,
1.52629E+12,-0.000366211,-0.029663086,1.008056641,17.2909252,62.39456,17.290782928466797,,
1.52629E+12,0.047241211,-0.033203125,1.010986328,17.2909252,62.39456,17.290782928466797,,
1.52629E+12,0.0078125,-0.04296875,0.954956055,17.2909252,62.39456,17.290782928466797,,
1.52629E+12,0.033691406,-0.022216797,0.967163086,17.2910504,62.3945433,17.290782928466797,,
1.52629E+12,0.034790039,-0.033691406,1.02355957,17.2910504,62.3945433,17.290956497192383,,
1.52629E+12,0.038330078,-0.042602539,1.015014648,17.2910504,62.3945433,17.290956497192383,,
1.52629E+12,0.035766602,-0.033203125,0.997070313,17.2910504,62.3945433,17.290956497192383,,
1.52629E+12,0.010131836,-0.03918457,1.060913086,17.2910504,62.3945433,17.290956497192383,,
1.52629E+12,0.031005859,-0.072021484,1.01574707,17.2910504,62.3945433,17.290956497192383,,
1.52629E+12,0.022094727,0.032470703,1.033691406,17.2911781,62.3945284,17.290956497192383,,
1.52629E+12,0.016357422,-0.010620117,1.016235352,17.2911781,62.3945284,17.290956497192383,,
1.52629E+12,0.031494141,-0.008178711,0.998779297,17.2911781,62.3945284,17.290956497192383,,
1.52629E+12,0.013061523,-0.037963867,0.991943359,17.2911781,62.3945284,17.290956497192383,,
1.52629E+12,0.029418945,0.001831055,1.006958008,17.2911781,62.3945284,17.291088104248047,,
1.52629E+12,0.008300781,-0.037109375,0.991699219,17.2911781,62.3945284,17.291088104248047,,
1.52629E+12,-0.019287109,-0.067138672,1.044799805,17.2911781,62.3945284,17.291088104248047,,
1.52629E+12,-0.041015625,-0.019165039,1.01550293,17.2911781,62.3945284,17.291088104248047,,
1.52629E+12,0.017333984,0.008666992,1.022094727,17.2911781,62.3945284,17.291088104248047,,
1.52629E+12,-0.022827148,-0.026733398,0.98449707,17.2911781,62.3945284,17.291088104248047,,
1.52629E+12,0.009765625,0.028564453,0.992675781,17.291317,62.3945177,17.291088104248047,,
1.52629E+12,-0.003417969,0.003173828,0.948364258,17.291317,62.3945177,17.291088104248047,,
1.52629E+12,0.075683594,-0.017333984,0.948242188,17.291317,62.3945177,17.291088104248047,,
1.52629E+12,0.015380859,-0.041870117,1.028930664,17.291317,62.3945177,17.291088104248047,,
1.52629E+12,-0.027709961,0.006225586,1.022216797,17.291317,62.3945177,17.29121208190918,,
1.52629E+12,0.002075195,0.044677734,1.018554688,17.291317,62.3945177,17.29121208190918,,
1.52629E+12,0.01965332,0.025390625,0.989379883,17.291317,62.3945177,17.29121208190918,,
1.52629E+12,-0.005004883,0.014648438,1.0703125,17.291317,62.3945177,17.29121208190918,,
1.52629E+12,0,0.01159668,0.956176758,17.291317,62.3945177,17.29121208190918,,
1.52629E+12,-0.040649414,-0.010253906,1.019042969,17.291317,62.3945177,17.29121208190918,,
1.52629E+12,-0.015869141,-0.004516602,0.98034668,17.291317,62.3945177,17.29121208190918,,
1.52629E+12,-0.016723633,0.002441406,1.041625977,17.291317,62.3945177,17.29121208190918,,
1.52629E+12,0.044555664,0.060424805,0.986694336,17.2914446,62.3945064,17.29121208190918,,
1.52629E+12,0.125976563,0.021850586,1.057861328,17.2914446,62.3945064,17.29121208190918,,
1.52629E+12,0.061645508,-0.035644531,0.998535156,17.2914446,62.3945064,17.29134750366211,,
1.52629E+12,0.061889648,-0.052856445,0.915893555,17.2914446,62.3945064,17.29134750366211,,
1.52629E+12,0.041625977,0.005004883,1.049926758,17.2914446,62.3945064,17.29134750366211,,
1.52629E+12,-0.017822266,-0.004882813,1.044677734,17.2914446,62.3945064,17.29134750366211,,
1.52629E+12,-0.048583984,0.013549805,1.124145508,17.2914446,62.3945064,17.29134750366211,,
1.52629E+12,0.026733398,-0.002319336,0.970825195,17.2914446,62.3945064,17.29134750366211,,
1.52629E+12,0.085449219,-0.070068359,0.845336914,17.291581,62.3944911,17.29134750366211,,
1.52629E+12,-0.019042969,-0.01550293,1.092163086,17.291581,62.3944911,17.29134750366211,,
1.52629E+12,-0.070678711,-0.056152344,1.089355469,17.291581,62.3944911,17.29134750366211,,
1.52629E+12,-0.092285156,-0.029541016,0.998657227,17.291581,62.3944911,17.29148292541504,,
1.52629E+12,0.143310547,0.061401367,0.967895508,17.291581,62.3944911,17.29148292541504,,
1.52629E+12,0.047729492,0.060668945,1.031982422,17.291581,62.3944911,17.29148292541504,,
1.52629E+12,-0.020141602,-0.073608398,0.924072266,17.291581,62.3944911,17.29148292541504,,
1.52629E+12,0.184204102,-0.013183594,0.779418945,17.291581,62.3944911,17.29148292541504,,
1.52629E+12,0.032348633,-0.088867188,0.818847656,17.291581,62.3944911,17.29148292541504,,
1.52629E+12,0.003662109,0.108642578,0.944335938,17.291581,62.3944911,17.29148292541504,,
1.52629E+12,0.036865234,0.001464844,1.009277344,17.291581,62.3944911,17.29148292541504,,
1.52629E+12,-0.131225586,0.091796875,0.966796875,17.2917039,62.3944765,17.291606903076172,,
1.52629E+12,-0.187744141,0.109008789,0.615234375,17.2917039,62.3944765,17.291606903076172,,
1.52629E+12,-0.349121094,0.116577148,1.190551758,17.2917039,62.3944765,17.291606903076172,,
1.52629E+12,0.088256836,0.096435547,0.860107422,17.2917039,62.3944765,17.291606903076172,,
1.52629E+12,0.230834961,-0.0859375,0.80065918,17.2917039,62.3944765,17.291606903076172,,
1.52629E+12,-0.044799805,-0.154907227,1.215454102,17.2917039,62.3944765,17.291606903076172,,
1.52629E+12,0.136474609,-0.093383789,1.111328125,17.2917039,62.3944765,17.291606903076172,,
1.52629E+12,0.022216797,-0.053100586,1.010009766,17.2917039,62.3944765,17.291606903076172,,
1.52629E+12,-0.000732422,-0.070922852,0.978637695,17.2918151,62.3944523,17.291606903076172,,
1.52629E+12,-0.002319336,-0.067016602,0.974853516,17.2918151,62.3944523,17.291606903076172,,
1.52629E+12,0.028808594,-0.044311523,0.977661133,17.2918151,62.3944523,17.291738510131836,,
1.52629E+12,-0.014282227,-0.057373047,1.015991211,17.2918151,62.3944523,17.291738510131836,,
1.52629E+12,0.020141602,-0.034423828,0.962036133,17.2918151,62.3944523,17.291738510131836,,
1.52629E+12,0.013061523,-0.038452148,0.980712891,17.2918151,62.3944523,17.291738510131836,,
1.52629E+12,0.02331543,-0.012817383,0.994628906,17.2918151,62.3944523,17.291738510131836,,
1.52629E+12,-0.004394531,-0.020629883,0.991455078,17.2919405,62.394436,17.291738510131836,,
1.52629E+12,0.01171875,-0.035888672,1.013183594,17.2919405,62.394436,17.291738510131836,,
1.52629E+12,0,-0.006713867,1.006347656,17.2919405,62.394436,17.291738510131836,,
1.52629E+12,0.031860352,-0.017578125,0.986450195,17.2919405,62.394436,17.291738510131836,,
1.52629E+12,0.009643555,-0.054321289,0.984985352,17.2919405,62.394436,17.291858673095703,,
1.52629E+12,0.008178711,-0.010742188,1.006103516,17.2919405,62.394436,17.291858673095703,,
1.52629E+12,0.010742188,-0.033081055,0.982421875,17.2919405,62.394436,17.291858673095703,,
1.52629E+12,0.033935547,-0.063842773,0.92980957,17.2919405,62.394436,17.291858673095703,,
1.52629E+12,0.015380859,-0.067504883,1.038696289,17.2919405,62.394436,17.291858673095703,,
1.52629E+12,-0.019042969,-0.06640625,1.055297852,17.2919405,62.394436,17.291858673095703,,
1.52629E+12,-0.01550293,-0.050537109,1.02734375,17.2919405,62.394436,17.291858673095703,,
1.52629E+12,0.023071289,-0.011474609,0.984619141,17.2920765,62.3944268,17.291858673095703,,
1.52629E+12,0.043457031,-0.028808594,0.959594727,17.2920765,62.3944268,17.291858673095703,,
1.52629E+12,0.049072266,-0.029541016,0.952270508,17.2920765,62.3944268,17.291858673095703,,
1.52629E+12,0.030517578,-0.017822266,0.936889648,17.2920765,62.3944268,17.2919864654541,,
1.52629E+12,-0.003662109,-0.039794922,1.037841797,17.2920765,62.3944268,17.2919864654541,,
1.52629E+12,-0.056396484,-0.005371094,1.080566406,17.2920765,62.3944268,17.2919864654541,,
1.52629E+12,-0.07409668,-0.007324219,1.099731445,17.2920765,62.3944268,17.2919864654541,,
1.52629E+12,-0.015014648,-0.01550293,1.016967773,17.2920765,62.3944268,17.2919864654541,,
1.52629E+12,0.029174805,0.006713867,1.001831055,17.2920765,62.3944268,17.2919864654541,,
1.52629E+12,-0.059570313,-0.027587891,0.974365234,17.2920765,62.3944268,17.2919864654541,,
1.52629E+12,-0.003540039,-0.068603516,1.023803711,17.2922053,62.3944173,17.2919864654541,,
1.52629E+12,0.03503418,-0.061767578,0.983642578,17.2922053,62.3944173,17.2919864654541,,
1.52629E+12,0.04699707,-0.075439453,0.960205078,17.2922053,62.3944173,17.292123794555664,,
1.52629E+12,-0.027709961,-0.062255859,1.003295898,17.2922053,62.3944173,17.292123794555664,,
1.52629E+12,0.013671875,-0.059204102,1.027587891,17.2922053,62.3944173,17.292123794555664,,
1.52629E+12,0.004272461,-0.031738281,1.004882813,17.2922053,62.3944173,17.292123794555664,,
1.52629E+12,0.006347656,-0.041870117,0.987426758,17.2923514,62.3944083,17.292123794555664,,
1.52629E+12,0.021850586,-0.026611328,0.950317383,17.2923514,62.3944083,17.292123794555664,,
1.52629E+12,0.043579102,-0.045776367,1.013916016,17.2923514,62.3944083,17.292123794555664,,
1.52629E+12,0.000610352,-0.043701172,1.017578125,17.2923514,62.3944083,17.292123794555664,,
1.52629E+12,0.052856445,-0.083374023,1.029785156,17.2923514,62.3944083,17.292123794555664,,
1.52629E+12,-0.005126953,-0.057373047,0.953369141,17.2923514,62.3944083,17.292259216308594,,
1.52629E+12,0.014770508,-0.045043945,0.924072266,17.2923514,62.3944083,17.292259216308594,,
1.52629E+12,-0.004150391,-0.050292969,0.986450195,17.2923514,62.3944083,17.292259216308594,,
1.52629E+12,0.009887695,-0.034179688,0.999023438,17.2923514,62.3944083,17.292259216308594,,
1.52629E+12,0.018676758,-0.0625,0.932861328,17.2923514,62.3944083,17.292259216308594,,
1.52629E+12,0.022338867,-0.033325195,1.001831055,17.2924907,62.3943967,17.292259216308594,,
1.52629E+12,0.005859375,-0.017089844,0.996337891,17.2924907,62.3943967,17.292259216308594,,
1.52629E+12,-0.024902344,-0.053344727,1.016235352,17.2924907,62.3943967,17.292259216308594,,
1.52629E+12,0.038696289,-0.055419922,0.976074219,17.2924907,62.3943967,17.29239845275879,,
1.52629E+12,0.068969727,-0.056884766,0.970458984,17.2924907,62.3943967,17.29239845275879,,
1.52629E+12,0.059936523,-0.024780273,0.998291016,17.2924907,62.3943967,17.29239845275879,,
1.52629E+12,0.011352539,-0.026245117,1.026611328,17.2924907,62.3943967,17.29239845275879,,
1.52629E+12,0.002929688,-0.056762695,1.041015625,17.2924907,62.3943967,17.29239845275879,,
1.52629E+12,0.015136719,-0.01171875,0.985961914,17.2924907,62.3943967,17.29239845275879,,
1.52629E+12,0.016235352,-0.036010742,1.001708984,17.2924907,62.3943967,17.29239845275879,,
1.52629E+12,0.042358398,-0.0703125,0.985351563,17.2924907,62.3943967,17.29239845275879,,
1.52629E+12,0.045166016,-0.07043457,0.995849609,17.2924907,62.3943967,17.29239845275879,,
1.52629E+12,0.047729492,-0.00378418,0.966918945,17.2926437,62.394382,17.29239845275879,,
1.52629E+12,0.041259766,-0.051635742,0.977905273,17.2926437,62.394382,17.29254722595215,,
1.52629E+12,0.03894043,0.007080078,0.983764648,17.2926437,62.394382,17.29254722595215,,
1.52629E+12,0.008789063,0.005004883,0.956054688,17.2926437,62.394382,17.29254722595215,,
1.52629E+12,0.038208008,0.014160156,0.988891602,17.2926437,62.394382,17.29254722595215,,
1.52629E+12,0.017456055,-0.032592773,1.021362305,17.2927933,62.3943675,17.29254722595215,,
1.52629E+12,0.012329102,-0.016967773,0.954101563,17.2927933,62.3943675,17.29254722595215,,
1.52629E+12,0.000854492,-0.013427734,0.992919922,17.2927933,62.3943675,17.29254722595215,,
1.52629E+12,0.005126953,-0.032592773,0.982421875,17.2927933,62.3943675,17.29254722595215,,
1.52629E+12,0.004516602,-0.020141602,1.0390625,17.2927933,62.3943675,17.29254722595215,,
1.52629E+12,-0.001586914,0.007080078,1.013549805,17.2927933,62.3943675,17.292688369750977,,
1.52629E+12,-0.005493164,-0.008789063,1.006225586,17.2927933,62.3943675,17.292688369750977,,
1.52629E+12,0.034667969,0.006835938,1.045898438,17.2927933,62.3943675,17.292688369750977,,
1.52629E+12,0.005493164,-0.02331543,1.038085938,17.2927933,62.3943675,17.292688369750977,,
1.52629E+12,-0.013916016,0.028320313,0.989746094,17.2927933,62.3943675,17.292688369750977,,
1.52629E+12,-0.010375977,-0.005249023,1.013793945,17.2927933,62.3943675,17.292688369750977,,
1.52629E+12,0.000488281,0.010986328,1.010864258,17.2929423,62.3943518,17.292688369750977,,
1.52629E+12,-0.0234375,-0.030151367,1.019165039,17.2929423,62.3943518,17.292688369750977,,
1.52629E+12,0.018310547,-0.033203125,1.006469727,17.2929423,62.3943518,17.292688369750977,,
1.52629E+12,-0.014770508,-0.021850586,1.010742188,17.2929423,62.3943518,17.292835235595703,,
1.52629E+12,0.022460938,-0.009277344,0.950927734,17.2929423,62.3943518,17.292835235595703,,
1.52629E+12,-0.026489258,-0.011962891,1.027954102,17.2929423,62.3943518,17.292835235595703,,
1.52629E+12,0.02746582,-0.016113281,1.028686523,17.2929423,62.3943518,17.292835235595703,,
1.52629E+12,-0.068359375,0.040771484,1.043823242,17.2929423,62.3943518,17.292835235595703,,
1.52629E+12,0.028320313,0.033203125,0.930541992,17.2929423,62.3943518,17.292835235595703,,
1.52629E+12,0.018554688,-0.054443359,1.029174805,17.2929423,62.3943518,17.292835235595703,,
1.52629E+12,-0.073120117,0.032958984,1.073974609,17.2929423,62.3943518,17.292835235595703,,
1.52629E+12,0.045410156,0.000854492,0.967651367,17.2930932,62.3943329,17.292835235595703,,
1.52629E+12,0.052124023,-0.005371094,0.98828125,17.2930932,62.3943329,17.292835235595703,,
1.52629E+12,-0.021484375,-0.024047852,0.979614258,17.2930932,62.3943329,17.292987823486328,,
1.52629E+12,-0.021850586,0.006225586,1.002319336,17.2930932,62.3943329,17.292987823486328,,
1.52629E+12,0.025390625,0.044799805,0.973632813,17.2930932,62.3943329,17.292987823486328,,
1.52629E+12,0.005004883,-0.010253906,1.002929688,17.2930932,62.3943329,17.292987823486328,,
1.52629E+12,0.009887695,-0.036621094,0.948364258,17.2932411,62.3943197,17.292987823486328,,
1.52629E+12,0.01574707,-0.069580078,1.022827148,17.2932411,62.3943197,17.292987823486328,,
1.52629E+12,-0.019775391,-0.128662109,1.051025391,17.2932411,62.3943197,17.292987823486328,,
1.52629E+12,0.018188477,-0.033813477,0.956420898,17.2932411,62.3943197,17.292987823486328,,
1.52629E+12,0.045654297,-0.129882813,1.048461914,17.2932411,62.3943197,17.292987823486328,,
1.52629E+12,-0.001831055,-0.035522461,0.934204102,17.2932411,62.3943197,17.293134689331055,,
1.52629E+12,-0.004638672,-0.101074219,1.06262207,17.2932411,62.3943197,17.293134689331055,,
1.52629E+12,0.070800781,-0.057250977,0.935058594,17.2932411,62.3943197,17.293134689331055,,
1.52629E+12,0.073364258,-0.078979492,0.958496094,17.2932411,62.3943197,17.293134689331055,,
1.52629E+12,-0.005126953,-0.069702148,1.039672852,17.2932411,62.3943197,17.293134689331055,,
1.52629E+12,0.020507813,-0.010009766,0.977661133,17.2934035,62.3943031,17.293134689331055,,
1.52629E+12,0.009033203,-0.044921875,1.060058594,17.2934035,62.3943031,17.293134689331055,,
1.52629E+12,0.005004883,-0.039428711,1.069702148,17.2934035,62.3943031,17.293134689331055,,
1.52629E+12,0.061279297,-0.018798828,0.892944336,17.2934035,62.3943031,17.293134689331055,,
1.52629E+12,0.013916016,-0.026733398,1.014160156,17.2934035,62.3943031,17.293283462524414,,
1.52629E+12,-0.01953125,-0.026245117,1.008544922,17.2934035,62.3943031,17.293283462524414,,
1.52629E+12,-0.000488281,-0.02331543,0.970825195,17.2934035,62.3943031,17.293283462524414,,
1.52629E+12,0.018920898,-0.020385742,0.963256836,17.2934035,62.3943031,17.293283462524414,,
1.52629E+12,-0.000976563,-0.009643555,1.012939453,17.2934035,62.3943031,17.293283462524414,,
1.52629E+12,0.007324219,-0.028198242,0.930419922,17.2934035,62.3943031,17.293283462524414,,
1.52629E+12,0.0234375,0.008789063,0.976318359,17.2934035,62.3943031,17.293283462524414,,
1.52629E+12,0,-0.012329102,1.046386719,17.2934035,62.3943031,17.293283462524414,,
1.52629E+12,0.026611328,-0.002197266,0.982543945,17.293572,62.3942877,17.293283462524414,,
1.52629E+12,-0.011108398,-0.00378418,1.054931641,17.293572,62.3942877,17.29343032836914,,
1.52629E+12,0.021850586,-0.048950195,1.032592773,17.293572,62.3942877,17.29343032836914,,
1.52629E+12,-0.014160156,-0.009643555,1.040039063,17.293572,62.3942877,17.29343032836914,,
1.52629E+12,0.062744141,-0.024291992,0.979858398,17.293572,62.3942877,17.29343032836914,,
1.52629E+12,0.055664063,-0.054199219,0.959594727,17.293572,62.3942877,17.29343032836914,,
1.52629E+12,0.0234375,-0.027709961,1.013305664,17.293572,62.3942877,17.29343032836914,,
1.52629E+12,0.005004883,-0.021240234,1.042358398,17.293572,62.3942877,17.29343032836914,,
1.52629E+12,-0.022094727,-0.026245117,0.991943359,17.293572,62.3942877,17.29343032836914,,
1.52629E+12,-0.002441406,-0.015014648,0.912597656,17.293572,62.3942877,17.29343032836914,,
1.52629E+12,0.044311523,-0.033325195,0.986816406,17.293724,62.3942718,17.2935791015625,,
1.52629E+12,0.027709961,-0.065917969,0.997680664,17.293724,62.3942718,17.2935791015625,,
1.52629E+12,-0.05871582,0.020751953,1.001586914,17.293724,62.3942718,17.2935791015625,,
1.52629E+12,0.042236328,-0.049194336,1.000976563,17.293724,62.3942718,17.2935791015625,,
1.52629E+12,0.023681641,0.008666992,0.972900391,17.293724,62.3942718,17.2935791015625,,
1.52629E+12,0.062011719,-0.063842773,1.015991211,17.293724,62.3942718,17.2935791015625,,
1.52629E+12,0.045776367,-0.033081055,1.002075195,17.293724,62.3942718,17.2935791015625,,
